pos,corr_resp,trials_3.thisRepN,trials_3.thisTrialN,trials_3.thisN,trials_3.thisIndex,trials.thisRepN,trials.thisTrialN,trials.thisN,trials.thisIndex,trials_2.thisRepN,trials_2.thisTrialN,trials_2.thisN,trials_2.thisIndex,fixation.started,line1.started,line2.started,line3.started,line4.started,fixation.stopped,probe.started,key_resp.started,probe.stopped,key_resp.keys,key_resp.corr,key_resp.rt,key_resp.duration,participant,session,date,expName,psychopyVersion,frameRate,,sequesntial RT,randomRT,,,,,,,,,,sequesntial RT,randomRT
-50,x,0,0,0,0,0,0,0,0,,,,,18.27763925003819,19.26412295899354,19.26412295899354,19.26412295899354,19.26412295899354,19.27744045900181,20.26002983399667,20.26002983399667,21.249805166968144,x,1,1.5944475820288062,None,tutorial4,001,2023-10-17_19h49.07.799,tutorial4,2023.1.3,None,,1.5944475820288062,0.3352399569703266,,,,,,,,,,1.5944475820288062,0.3352399569703266
150,v,0,0,0,0,0,1,1,1,,,,,21.88552783394698,22.876921167015098,22.876921167015098,22.876921167015098,22.876921167015098,22.887291459017433,23.87667883,23.87667883,,v,1,0.6738849569810554,None,tutorial4,001,2023-10-17_19h49.07.799,tutorial4,2023.1.3,None,,0.6738849569810554,0.7192976649384946,,,,,,,,,,0.6738849569810554,0.7192976649384946
50,c,0,0,0,0,0,2,2,2,,,,,24.567069999990053,25.555339292041026,25.555339292041026,25.555339292041026,25.555339292041026,25.565161417005584,26.56054016703274,26.56054016703274,,c,1,0.48392245697323233,None,tutorial4,001,2023-10-17_19h49.07.799,tutorial4,2023.1.3,None,,0.48392245697323233,0.2784877070225775,,,,,,,,,,0.48392245697323233,0.2784877070225775
-150,z,0,0,0,0,0,3,3,3,,,,,27.060257459059358,28.048095499980263,28.048095499980263,28.048095499980263,28.048095499980263,28.060483500012197,29.043461792054586,29.043461792054586,,z,1,0.4873314159922302,None,tutorial4,001,2023-10-17_19h49.07.799,tutorial4,2023.1.3,None,,0.4873314159922302,0.6182817069347948,,,,,,,,,,0.4873314159922302,0.6182817069347948
-50,x,0,0,0,0,1,0,4,0,,,,,29.54384683,30.544268458965234,30.544268458965234,30.544268458965234,30.544268458965234,30.56089158402756,31.52686750004068,31.52686750004068,,x,1,0.6472568729659542,None,tutorial4,001,2023-10-17_19h49.07.799,tutorial4,2023.1.3,None,,0.6472568729659542,0.5874442899366841,,,,,,,,,,0.6472568729659542,0.5874442899366841
150,v,0,0,0,0,1,1,5,1,,,,,32.18495541694574,33.172188583994284,33.172188583994284,33.172188583994284,33.172188583994284,33.18107870896347,34.16893383394927,34.16893383394927,,v,1,0.4716899979393929,None,tutorial4,001,2023-10-17_19h49.07.799,tutorial4,2023.1.3,None,,0.4716899979393929,0.6939217899926007,,,,SeqRT,RandomRT,,,,,0.4716899979393929,0.6939217899926007
50,c,0,0,0,0,1,2,6,2,,,,,34.65161308,35.639339833986014,35.639339833986014,35.639339833986014,35.639339833986014,35.648273959057406,36.64358195895329,36.64358195895329,,c,1,0.6572722069686279,None,tutorial4,001,2023-10-17_19h49.07.799,tutorial4,2023.1.3,None,,0.6572722069686279,0.7390499989269301,,,Bin,,,,,,,0.6572722069686279,0.7390499989269301
-150,z,0,0,0,0,1,3,7,3,,,,,37.31786087504588,38.30560633400455,38.30560633400455,38.30560633400455,38.30560633400455,38.31480575003661,39.302387584000826,39.302387584000826,,z,1,0.5272262069629505,None,tutorial4,001,2023-10-17_19h49.07.799,tutorial4,2023.1.3,None,,0.5272262069629505,0.42991029005497694,,,1,0.476568874,0.620670676,,,,,0.5272262069629505,0.42991029005497694
-50,x,0,0,0,0,2,0,8,0,,,,,39.84377649996895,40.84456129197497,40.84456129197497,40.84456129197497,40.84456129197497,40.86153820902109,41.82705987500958,41.82705987500958,,x,1,0.3707894569961354,None,tutorial4,001,2023-10-17_19h49.07.799,tutorial4,2023.1.3,None,,0.3707894569961354,0.754602499,,,2,0.492015707,0.607413388,,,,,0.3707894569961354,0.754602499
150,v,0,0,0,0,2,1,9,1,,,,,42.21033350005746,43.19505116704386,43.19505116704386,43.19505116704386,43.19505116704386,43.20480724994559,44.19332229194697,44.19332229194697,,v,1,0.4357142070075497,None,tutorial4,001,2023-10-17_19h49.07.799,tutorial4,2023.1.3,None,,0.4357142070075497,0.9208754979772493,,,3,0.384944769,0.769929804,,,,,0.4357142070075497,0.9208754979772493
50,c,0,0,0,0,2,2,10,2,,,,,44.64373879204504,45.64435141696595,45.64435141696595,45.64435141696595,45.64435141696595,45.66146587498952,46.6351545,46.6351545,,c,1,0.3776863319799304,None,tutorial4,001,2023-10-17_19h49.07.799,tutorial4,2023.1.3,None,,0.3776863319799304,0.7643215819261968,,,4,0.552184728,0.487704776,,,,,0.3776863319799304,0.7643215819261968
-150,z,0,0,0,0,2,3,11,3,,,,,47.02721904194914,48.02777733,48.02777733,48.02777733,48.02777733,48.04469091701321,49.01965058397036,49.01965058397036,,z,1,0.43305812298785895,None,tutorial4,001,2023-10-17_19h49.07.799,tutorial4,2023.1.3,None,,0.43305812298785895,0.7872333319392055,,,,,,,,,,0.43305812298785895,0.7872333319392055
-50,x,0,0,0,0,3,0,12,0,,,,,49.46811295906082,50.456046834005974,50.456046834005974,50.456046834005974,50.456046834005974,50.465069166966714,51.451989709050395,51.451989709050395,,x,1,0.36856853996869177,None,tutorial4,001,2023-10-17_19h49.07.799,tutorial4,2023.1.3,None,,0.36856853996869177,0.6183600819204003,,,,,,,,,,0.36856853996869177,0.6183600819204003
150,v,0,0,0,0,3,1,13,1,,,,,51.83503566705622,52.82795874995645,52.82795874995645,52.82795874995645,52.82795874995645,52.83762174996082,53.81979129195679,53.81979129195679,,v,1,0.3946095819119364,None,tutorial4,001,2023-10-17_19h49.07.799,tutorial4,2023.1.3,None,,0.3946095819119364,0.8749062489951029,,,,,,,,,,0.3946095819119364,0.8749062489951029
50,c,0,0,0,0,3,2,14,2,,,,,54.22729549999349,55.22791270900052,55.22791270900052,55.22791270900052,55.22791270900052,55.24442945898045,56.21905858395621,56.21905858395621,,c,1,0.3508496239082888,None,tutorial4,001,2023-10-17_19h49.07.799,tutorial4,2023.1.3,None,,0.3508496239082888,0.5221877478761598,,aver seq rt,0.478001274,,,,,,,0.3508496239082888,0.5221877478761598
-150,z,0,0,0,0,3,3,15,3,,,,,56.58607408,57.573138291947544,57.573138291947544,57.573138291947544,57.573138291947544,57.58199037495069,58.57720212,58.57720212,,z,1,0.9354643729748204,None,tutorial4,001,2023-10-17_19h49.07.799,tutorial4,2023.1.3,None,,0.9354643729748204,0.8913013320416212,,aver ranrt,0.621371278,,,,,,,0.9354643729748204,0.8913013320416212
-50,x,0,0,0,0,4,0,16,0,,,,,59.527485416969284,60.52138733398169,60.52138733398169,60.52138733398169,60.52138733398169,60.52138733398169,61.51881483395118,61.51881483395118,,x,1,0.33276949799619615,None,tutorial4,001,2023-10-17_19h49.07.799,tutorial4,2023.1.3,None,,0.33276949799619615,0.6098294149851426,,difference,0.143370004,,,,,,,0.33276949799619615,0.6098294149851426
150,v,0,0,0,0,4,1,17,1,,,,,61.86862054199446,62.856663584010676,62.856663584010676,62.856663584010676,62.856663584010676,62.865521874977276,63.86058308405336,63.86058308405336,,v,1,0.46247362392023206,None,tutorial4,001,2023-10-17_19h49.07.799,tutorial4,2023.1.3,None,,0.46247362392023206,0.8371819159947336,,,,,,,,,,0.46247362392023206,0.8371819159947336
50,c,0,0,0,0,4,2,18,2,,,,,64.33492954203393,65.32283475005534,65.32283475005534,65.32283475005534,65.32283475005534,65.33172570902389,66.31888566701673,66.31888566701673,,c,1,0.34465295705012977,None,tutorial4,001,2023-10-17_19h49.07.799,tutorial4,2023.1.3,None,,0.34465295705012977,0.7049352069152519,,,,,,,,,,0.34465295705012977,0.7049352069152519
-150,z,0,0,0,0,4,3,19,3,,,,,66.67753270897083,67.67107920895796,67.67107920895796,67.67107920895796,67.67107920895796,67.67107920895796,68.66087854199577,68.66087854199577,,z,1,0.647133874,None,tutorial4,001,2023-10-17_19h49.07.799,tutorial4,2023.1.3,None,,0.647133874,0.6231817899970338,,,,,,,,,,0.647133874,0.6231817899970338
-50,x,0,0,0,0,5,0,20,0,,,,,69.31844166701194,70.30609116703272,70.30609116703272,70.30609116703272,70.30609116703272,70.31569408404175,71.31074212503154,71.31074212503154,,x,1,0.27564249897841364,None,tutorial4,001,2023-10-17_19h49.07.799,tutorial4,2023.1.3,None,,0.27564249897841364,0.7362220399081707,,,,,,,,,,0.27564249897841364,0.7362220399081707
150,v,0,0,0,0,5,1,21,1,,,,,71.60306016704999,72.65584845899139,72.65584845899139,72.65584845899139,72.65584845899139,72.65584845899139,73.59443883399945,73.59443883399945,,v,1,0.3906657069455832,None,tutorial4,001,2023-10-17_19h49.07.799,tutorial4,2023.1.3,None,,0.3906657069455832,0.6050891230115667,,,,,,,,,,0.3906657069455832,0.6050891230115667
50,c,0,0,0,0,5,2,22,2,,,,,74.00195508403704,74.98899175005499,74.98899175005499,74.98899175005499,74.98899175005499,74.99809491704218,75.99405762495007,75.99405762495007,,c,1,0.338333749,None,tutorial4,001,2023-10-17_19h49.07.799,tutorial4,2023.1.3,None,,0.338333749,0.7166417900007218,,,,,,,,,,0.338333749,0.7166417900007218
-150,z,0,0,0,0,5,3,23,3,,,,,76.34422617,77.34497924998868,77.34497924998868,77.34497924998868,77.34497924998868,77.36142954195384,78.33660562499426,78.33660562499426,,z,1,0.5294424990424886,None,tutorial4,001,2023-10-17_19h49.07.799,tutorial4,2023.1.3,None,,0.5294424990424886,0.675696415,,,,,,,,,,0.5294424990424886,0.675696415
-50,x,0,0,0,0,6,0,24,0,,,,,78.87761320895515,79.87836608395446,79.87836608395446,79.87836608395446,79.87836608395446,79.89486574998591,80.86084820900578,80.86084820900578,,x,1,0.30479649896733463,None,tutorial4,001,2023-10-17_19h49.07.799,tutorial4,2023.1.3,None,,0.30479649896733463,0.4620521659962833,,,,,,,,,,0.30479649896733463,0.4620521659962833
150,v,0,0,0,0,6,1,25,1,,,,,81.17752533406019,82.17822250002064,82.17822250002064,82.17822250002064,82.17822250002064,82.19536020897795,83.16895645903423,83.16895645903423,,v,1,0.6068079149117693,None,tutorial4,001,2023-10-17_19h49.07.799,tutorial4,2023.1.3,None,,0.6068079149117693,0.4352162069408223,,,,,,,,,,0.6068079149117693,0.4352162069408223
50,c,0,0,0,0,6,2,26,2,,,,,83.78397646,84.77367788,84.77367788,84.77367788,84.77367788,84.78273283399176,85.77756279194728,85.77756279194728,,c,1,0.5119709990685806,None,tutorial4,001,2023-10-17_19h49.07.799,tutorial4,2023.1.3,None,,0.5119709990685806,0.5678904990199953,,,,,,,,,,0.5119709990685806,0.5678904990199953
-150,z,0,0,0,0,6,3,27,3,,,,,86.30238616699353,87.29039379197638,87.29039379197638,87.29039379197638,87.29039379197638,87.29925329203252,88.28668520902283,88.28668520902283,,z,1,0.38381287397351116,None,tutorial4,001,2023-10-17_19h49.07.799,tutorial4,2023.1.3,None,,0.38381287397351116,0.3026060409611091,,,,,,,,,,0.38381287397351116,0.3026060409611091
-50,x,0,0,0,0,7,0,28,0,,,,,88.68558795901481,89.67314204201102,89.67314204201102,89.67314204201102,89.67314204201102,89.68252320901956,90.67760341695976,90.67760341695976,,x,1,0.35216787306126207,None,tutorial4,001,2023-10-17_19h49.07.799,tutorial4,2023.1.3,None,,0.35216787306126207,0.40502841502893716,,,,,,,,,,0.35216787306126207,0.40502841502893716
150,v,0,0,0,0,7,1,29,1,,,,,91.04446045903023,92.02914383402094,92.02914383402094,92.02914383402094,92.02914383402094,92.03906458395068,93.03622166696005,93.03622166696005,,v,1,0.3763136229244992,None,tutorial4,001,2023-10-17_19h49.07.799,tutorial4,2023.1.3,None,,0.3763136229244992,0.7685219990089536,,,,,,,,,,0.3763136229244992,0.7685219990089536
50,c,0,0,0,0,7,2,30,2,,,,,93.42761916702148,94.42210375,94.42210375,94.42210375,94.42210375,94.42210375,95.41118825005833,95.41118825005833,,c,1,0.8867412069812417,None,tutorial4,001,2023-10-17_19h49.07.799,tutorial4,2023.1.3,None,,0.8867412069812417,0.7972699148813263,,,,,,,,,,0.8867412069812417,0.7972699148813263
-150,z,0,0,0,0,7,3,31,3,,,,,96.31127199996263,97.29497791698668,97.29497791698668,97.29497791698668,97.29497791698668,97.30394912499469,98.29445033404045,98.29445033404045,,z,1,0.4422155409120023,None,tutorial4,001,2023-10-17_19h49.07.799,tutorial4,2023.1.3,None,,0.4422155409120023,0.30534133198671043,,,,,,,,,,0.4422155409120023,0.30534133198671043
-50,x,0,0,0,0,8,0,32,0,,,,,98.75261725,99.74059075000696,99.74059075000696,99.74059075000696,99.74059075000696,99.74930954200681,100.74441804201342,100.74441804201342,,x,1,0.22234070696868002,None,tutorial4,001,2023-10-17_19h49.07.799,tutorial4,2023.1.3,None,,0.22234070696868002,0.6220805819611996,,,,,,,,,,0.22234070696868002,0.6220805819611996
150,v,0,0,0,0,8,1,33,1,,,,,100.97770158399362,101.97185666696168,101.97185666696168,101.97185666696168,101.97185666696168,101.97185666696168,102.96109395904932,102.96109395904932,,v,1,0.4408993739634752,None,tutorial4,001,2023-10-17_19h49.07.799,tutorial4,2023.1.3,None,,0.4408993739634752,0.6958679570816457,,,,,,,,,,0.4408993739634752,0.6958679570816457
50,c,0,0,0,0,8,2,34,2,,,,,103.41904966696166,104.40578229201492,104.40578229201492,104.40578229201492,104.40578229201492,104.41574191697873,105.41167062497698,105.41167062497698,,c,1,0.7406669149640948,None,tutorial4,001,2023-10-17_19h49.07.799,tutorial4,2023.1.3,None,,0.7406669149640948,0.4871887069894001,,,,,,,,,,0.7406669149640948,0.4871887069894001
-150,z,0,0,0,0,8,3,35,3,,,,,106.16896475001704,107.15710429195315,107.15710429195315,107.15710429195315,107.15710429195315,107.1659936249489,108.15366420894861,108.15366420894861,,z,1,0.45370712399017066,None,tutorial4,001,2023-10-17_19h49.07.799,tutorial4,2023.1.3,None,,0.45370712399017066,0.325665332,,,,,,,,,,0.45370712399017066,0.325665332
-50,x,0,0,0,0,9,0,36,0,,,,,108.61902450001799,109.6069256250048,109.6069256250048,109.6069256250048,109.6069256250048,109.61594733397942,110.60313408402726,110.60313408402726,,x,1,0.27977266593370587,None,tutorial4,001,2023-10-17_19h49.07.799,tutorial4,2023.1.3,None,,0.27977266593370587,0.4325057070236653,,,,,,,,,,0.27977266593370587,0.4325057070236653
150,v,0,0,0,0,9,1,37,1,,,,,110.89476295898203,111.88889225001913,111.88889225001913,111.88889225001913,111.88889225001913,111.88889225001913,112.88577074999921,112.88577074999921,,v,1,0.5064289160072803,None,tutorial4,001,2023-10-17_19h49.07.799,tutorial4,2023.1.3,None,,0.5064289160072803,0.726718457,,,,,,,,,,0.5064289160072803,0.726718457
50,c,0,0,0,0,9,2,38,2,,,,,113.40221791702788,114.38998954195995,114.38998954195995,114.38998954195995,114.38998954195995,114.3997303340584,115.38612862501759,115.38612862501759,,c,1,0.27015983196906745,None,tutorial4,001,2023-10-17_19h49.07.799,tutorial4,2023.1.3,None,,0.27015983196906745,0.4364701649174094,,,,,,,,,,0.27015983196906745,0.4364701649174094
-150,z,0,0,0,0,9,3,39,3,,,,,115.66982820897829,116.6573859170312,116.6573859170312,116.6573859170312,116.6573859170312,116.66644016699865,117.65364575001877,117.65364575001877,,z,1,0.42875483189709485,None,tutorial4,001,2023-10-17_19h49.07.799,tutorial4,2023.1.3,None,,0.42875483189709485,0.3680378319695592,,,,,,,,,,0.42875483189709485,0.3680378319695592
-50,x,0,0,0,0,10,0,40,0,,,,,118.09472012496553,119.08912329201121,119.08912329201121,119.08912329201121,119.08912329201121,119.08912329201121,120.0867157089524,120.0867157089524,,x,1,0.29709691496100277,None,tutorial4,001,2023-10-17_19h49.07.799,tutorial4,2023.1.3,None,,0.29709691496100277,0.5032728740479797,,,,,,,,,,0.29709691496100277,0.5032728740479797
150,v,0,0,0,0,10,1,41,1,,,,,120.39499475003686,121.37970137502998,121.37970137502998,121.37970137502998,121.37970137502998,121.38930991699453,122.38581754197367,122.38581754197367,,v,1,0.4205055399797857,None,tutorial4,001,2023-10-17_19h49.07.799,tutorial4,2023.1.3,None,,0.4205055399797857,0.4936829989310354,,,,,,,,,,0.4205055399797857,0.4936829989310354
50,c,0,0,0,0,10,2,42,2,,,,,122.81929187499918,123.80742312502116,123.80742312502116,123.80742312502116,123.80742312502116,123.81648425001185,124.81134645896964,124.81134645896964,,c,1,0.3301895400509238,None,tutorial4,001,2023-10-17_19h49.07.799,tutorial4,2023.1.3,None,,0.3301895400509238,0.3143381649861112,,,,,,,,,,0.3301895400509238,0.3143381649861112
-150,z,0,0,0,0,10,3,43,3,,,,,125.15233137505129,126.14029766700696,126.14029766700696,126.14029766700696,126.14029766700696,126.14918199996464,127.14475524995942,127.14475524995942,,z,1,0.4588667070493102,None,tutorial4,001,2023-10-17_19h49.07.799,tutorial4,2023.1.3,None,,0.4588667070493102,0.41861783200874925,,,,,,,,,,0.4588667070493102,0.41861783200874925
-50,x,0,0,0,0,11,0,44,0,,,,,127.61928583402187,128.6073959589703,128.6073959589703,128.6073959589703,128.6073959589703,128.6164496249985,129.6029220840428,129.6029220840428,,x,1,0.444238999,None,tutorial4,001,2023-10-17_19h49.07.799,tutorial4,2023.1.3,None,,0.444238999,0.5808084150776267,,,,,,,,,,0.444238999,0.5808084150776267
150,v,0,0,0,0,11,1,45,1,,,,,130.0615880000405,131.0555367920315,131.0555367920315,131.0555367920315,131.0555367920315,131.0555367920315,132.04540516703855,132.04540516703855,,v,1,0.4428527900017798,None,tutorial4,001,2023-10-17_19h49.07.799,tutorial4,2023.1.3,None,,0.4428527900017798,0.8190007909433916,,,,,,,,,,0.4428527900017798,0.8190007909433916
50,c,0,0,0,0,11,2,46,2,,,,,132.50238508405164,133.49043116695248,133.49043116695248,133.49043116695248,133.49043116695248,133.4993320000358,134.49587208405137,134.49587208405137,,c,1,0.2795104569522664,None,tutorial4,001,2023-10-17_19h49.07.799,tutorial4,2023.1.3,None,,0.2795104569522664,0.5054901239927858,,,,,,,,,,0.2795104569522664,0.5054901239927858
-150,z,0,0,0,0,11,3,47,3,,,,,134.7860051250318,135.77345987502486,135.77345987502486,135.77345987502486,135.77345987502486,135.78299916698597,136.77097062498797,136.77097062498797,,z,1,0.42645645688753575,None,tutorial4,001,2023-10-17_19h49.07.799,tutorial4,2023.1.3,None,,0.42645645688753575,0.7175502069294453,,,,,,,,,,0.42645645688753575,0.7175502069294453
-50,x,0,0,0,0,12,0,48,0,,,,,137.2117770840414,138.2059642500244,138.2059642500244,138.2059642500244,138.2059642500244,138.2059642500244,139.19561325001996,139.19561325001996,,x,1,0.2871056649601087,None,tutorial4,001,2023-10-17_19h49.07.799,tutorial4,2023.1.3,None,,0.2871056649601087,0.7692412489559501,,,,,,,,,,0.2871056649601087,0.7692412489559501
150,v,0,0,0,0,12,1,49,1,,,,,139.49486537498888,140.48960616695695,140.48960616695695,140.48960616695695,140.48960616695695,140.48960616695695,141.4783122499939,141.4783122499939,,v,1,0.4200969149824232,None,tutorial4,001,2023-10-17_19h49.07.799,tutorial4,2023.1.3,None,,0.4200969149824232,0.4523558729561046,,,,,,,,,,0.4200969149824232,0.4523558729561046
50,c,0,0,0,0,12,2,50,2,,,,,141.91168187500443,142.90668224997353,142.90668224997353,142.90668224997353,142.90668224997353,142.90668224997353,143.90411483403295,143.90411483403295,,c,1,0.3004242479801178,None,tutorial4,001,2023-10-17_19h49.07.799,tutorial4,2023.1.3,None,,0.3004242479801178,0.4685059569310397,,,,,,,,,,0.3004242479801178,0.4685059569310397
-150,z,0,0,0,0,12,3,51,3,,,,,144.2197218,145.2069497089833,145.2069497089833,145.2069497089833,145.2069497089833,145.2158074589679,146.20363558398094,146.20363558398094,,z,1,0.2760931239463389,None,tutorial4,001,2023-10-17_19h49.07.799,tutorial4,2023.1.3,None,,0.2760931239463389,0.5758355400757864,,,,,,,,,,0.2760931239463389,0.5758355400757864
-50,x,0,0,0,0,13,0,52,0,,,,,146.49529937503394,147.48941191704944,147.48941191704944,147.48941191704944,147.48941191704944,147.48941191704944,148.48757095902693,148.48757095902693,,x,1,0.2433452900731936,None,tutorial4,001,2023-10-17_19h49.07.799,tutorial4,2023.1.3,None,,0.2433452900731936,0.40852166595868766,,,,,,,,,,0.2433452900731936,0.40852166595868766
150,v,0,0,0,0,13,1,53,1,,,,,148.74502095906064,149.74579958396498,149.74579958396498,149.74579958396498,149.74579958396498,149.76240766700357,150.7373430839507,150.7373430839507,,v,1,0.3211607070406899,None,tutorial4,001,2023-10-17_19h49.07.799,tutorial4,2023.1.3,None,,0.3211607070406899,0.4257957899244502,,,,,,,,,,0.3211607070406899,0.4257957899244502
50,c,0,0,0,0,13,2,54,2,,,,,151.06976341700647,152.0565232919762,152.0565232919762,152.0565232919762,152.0565232919762,152.06623416696675,153.0618910000194,153.0618910000194,,c,1,0.3953440400073305,None,tutorial4,001,2023-10-17_19h49.07.799,tutorial4,2023.1.3,None,,0.3953440400073305,0.2898699149955064,,,,,,,,,,0.3953440400073305,0.2898699149955064
-150,z,0,0,0,0,13,3,55,3,,,,,153.47011058405042,154.45736212504562,154.45736212504562,154.45736212504562,154.45736212504562,154.46669441706035,155.4538577919593,155.4538577919593,,z,1,0.5278706650715321,None,tutorial4,001,2023-10-17_19h49.07.799,tutorial4,2023.1.3,None,,0.5278706650715321,0.5266534979455173,,,,,,,,,,0.5278706650715321,0.5266534979455173
-50,x,0,0,0,0,14,0,56,0,,,,,155.99528745899443,156.9825205419911,156.9825205419911,156.9825205419911,156.9825205419911,156.9962753750151,157.9785151,157.9785151,,x,1,0.26149449904914945,None,tutorial4,001,2023-10-17_19h49.07.799,tutorial4,2023.1.3,None,,0.26149449904914945,0.3763339569559321,,,,,,,,,,0.26149449904914945,0.3763339569559321
150,v,0,0,0,0,14,1,57,1,,,,,158.25335787504446,159.24027291696984,159.24027291696984,159.24027291696984,159.24027291696984,159.24982549995184,160.2369254999794,160.2369254999794,,v,1,0.38954158197157085,None,tutorial4,001,2023-10-17_19h49.07.799,tutorial4,2023.1.3,None,,0.38954158197157085,0.5020472479518503,,,,,,,,,,0.38954158197157085,0.5020472479518503
50,c,0,0,0,0,14,2,58,2,,,,,160.63476320903283,161.62369154195767,161.62369154195767,161.62369154195767,161.62369154195767,161.63227808405645,162.62079266703222,162.62079266703222,,c,1,0.26620103989262134,None,tutorial4,001,2023-10-17_19h49.07.799,tutorial4,2023.1.3,None,,0.26620103989262134,0.7276032069930807,,,,,,,,,,0.26620103989262134,0.7276032069930807
-150,z,0,0,0,0,14,3,59,3,,,,,162.90308654203545,163.89035200001672,163.89035200001672,163.89035200001672,163.89035200001672,163.89931979204994,164.8956473750295,164.8956473750295,,z,1,0.3443737899651751,None,tutorial4,001,2023-10-17_19h49.07.799,tutorial4,2023.1.3,None,,0.3443737899651751,0.6126952479826286,,,,,,,,,,0.3443737899651751,0.6126952479826286
-50,x,0,0,0,0,15,0,60,0,,,,,165.2531168749556,166.24086091702338,166.24086091702338,166.24086091702338,166.24086091702338,166.25015129195526,167.2368867089972,167.2368867089972,,x,1,0.29475883196573704,None,tutorial4,001,2023-10-17_19h49.07.799,tutorial4,2023.1.3,None,,0.29475883196573704,0.6517751649953425,,,,,,,,,,0.29475883196573704,0.6517751649953425
150,v,0,0,0,0,15,1,61,1,,,,,167.54559574997984,168.5401882500155,168.5401882500155,168.5401882500155,168.5401882500155,168.5401882500155,169.52864137501456,169.52864137501456,,v,1,0.42917529004625976,None,tutorial4,001,2023-10-17_19h49.07.799,tutorial4,2023.1.3,None,,0.42917529004625976,0.46800366591196507,,,,,,,,,,0.42917529004625976,0.46800366591196507
50,c,0,0,0,0,15,2,62,2,,,,,169.9695562090492,170.9575468749972,170.9575468749972,170.9575468749972,170.9575468749972,170.9664134590421,171.95382787496783,171.95382787496783,,c,1,0.5018892070511356,None,tutorial4,001,2023-10-17_19h49.07.799,tutorial4,2023.1.3,None,,0.5018892070511356,0.48429429007228464,,,,,,,,,,0.5018892070511356,0.48429429007228464
-150,z,0,0,0,0,15,3,63,3,,,,,172.46985145902727,173.4582962919958,173.4582962919958,173.4582962919958,173.4582962919958,173.46769079205114,174.46197537495755,174.46197537495755,,z,1,0.6550016649998724,None,tutorial4,001,2023-10-17_19h49.07.799,tutorial4,2023.1.3,None,,0.6550016649998724,0.7198813740396872,,,,,,,,,,0.6550016649998724,0.7198813740396872
-50,x,0,0,0,0,16,0,64,0,,,,,175.1287013340043,176.11280329199508,176.11280329199508,176.11280329199508,176.11280329199508,176.1223829999799,177.11218095896766,177.11218095896766,,x,1,0.309792748,None,tutorial4,001,2023-10-17_19h49.07.799,tutorial4,2023.1.3,None,,0.309792748,0.7405368729960173,,,,,,,,,,0.309792748,0.7405368729960173
150,v,0,0,0,0,16,1,65,1,,,,,177.43684341700282,178.42406479199417,178.42406479199417,178.42406479199417,178.42406479199417,178.4336382499896,179.42081841698382,179.42081841698382,,v,1,0.35956878995057195,None,tutorial4,001,2023-10-17_19h49.07.799,tutorial4,2023.1.3,None,,0.35956878995057195,0.4552883730502799,,,,,,,,,,0.35956878995057195,0.4552883730502799
50,c,0,0,0,0,16,2,66,2,,,,,179.79568816698156,180.7804422,180.7804422,180.7804422,180.7804422,180.79016245901585,181.77891537500545,181.77891537500545,,c,1,0.2601173729635775,None,tutorial4,001,2023-10-17_19h49.07.799,tutorial4,2023.1.3,None,,0.2601173729635775,0.4764109159586951,,,,,,,,,,0.2601173729635775,0.4764109159586951
-150,z,0,0,0,0,16,3,67,3,,,,,182.05369166703895,183.04081695899367,183.04081695899367,183.04081695899367,183.04081695899367,183.0501500000246,184.03781733405776,184.03781733405776,,z,1,0.3092505820095539,None,tutorial4,001,2023-10-17_19h49.07.799,tutorial4,2023.1.3,None,,0.3092505820095539,0.6213647900149226,,,,,,,,,,0.3092505820095539,0.6213647900149226
-50,x,0,0,0,0,17,0,68,0,,,,,184.3622074170271,185.35716383403633,185.35716383403633,185.35716383403633,185.35716383403633,185.35716383403633,186.35338149999734,186.35338149999734,,x,1,0.3779123319545761,None,tutorial4,001,2023-10-17_19h49.07.799,tutorial4,2023.1.3,None,,0.3779123319545761,0.761760707,,,,,,,,,,0.3779123319545761,0.761760707
150,v,0,0,0,0,17,1,69,1,,,,,186.74575083400123,187.74023566697724,187.74023566697724,187.74023566697724,187.74023566697724,187.74023566697724,188.72894787497353,188.72894787497353,,v,1,0.6581959159811959,None,tutorial4,001,2023-10-17_19h49.07.799,tutorial4,2023.1.3,None,,0.6581959159811959,0.452243791,,,,,,,,,,0.6581959159811959,0.452243791
50,c,0,0,0,0,17,2,70,2,,,,,189.4030891250586,190.39035912498366,190.39035912498366,190.39035912498366,190.39035912498366,190.40037183405366,191.3867150839651,191.3867150839651,,c,1,0.2531192069873214,None,tutorial4,001,2023-10-17_19h49.07.799,tutorial4,2023.1.3,None,,0.2531192069873214,0.6935279569588602,,,,,,,,,,0.2531192069873214,0.6935279569588602
-150,z,0,0,0,0,17,3,71,3,,,,,191.65351266704965,192.6405785420211,192.6405785420211,192.6405785420211,192.6405785420211,192.65028483397327,193.6377344999928,193.6377344999928,,z,1,0.45684712298680097,None,tutorial4,001,2023-10-17_19h49.07.799,tutorial4,2023.1.3,None,,0.45684712298680097,0.6486714159836993,,,,,,,,,,0.45684712298680097,0.6486714159836993
-50,x,0,0,0,0,18,0,72,0,,,,,194.10191862494685,195.09546987502836,195.09546987502836,195.09546987502836,195.09546987502836,195.09546987502836,196.08777604205534,196.08777604205534,,x,1,0.4838746649911627,None,tutorial4,001,2023-10-17_19h49.07.799,tutorial4,2023.1.3,None,,0.4838746649911627,1.2701622489839792,,,,,,,,,,0.4838746649911627,1.2701622489839792
150,v,0,0,0,0,18,1,73,1,,,,,196.58680962503422,197.57376225001644,197.57376225001644,197.57376225001644,197.57376225001644,197.5836353750201,198.57041299995035,198.57041299995035,,v,1,0.4774002489866689,None,tutorial4,001,2023-10-17_19h49.07.799,tutorial4,2023.1.3,None,,0.4774002489866689,0.8130074160872027,,,,,,,,,,0.4774002489866689,0.8130074160872027
50,c,0,0,0,0,18,2,74,2,,,,,199.06226920895278,200.05685962503776,200.05685962503776,200.05685962503776,200.05685962503776,200.05685962503776,201.05487979203463,201.05487979203463,,c,1,0.7667641650186852,None,tutorial4,001,2023-10-17_19h49.07.799,tutorial4,2023.1.3,None,,0.7667641650186852,0.5600530820665881,,,,,,,,,,0.7667641650186852,0.5600530820665881
-150,z,0,0,0,0,18,3,75,3,,,,,201.83707466698252,202.8241432,202.8241432,202.8241432,202.8241432,202.8338089589961,203.82120600005146,203.82120600005146,,z,1,0.40519378997851163,None,tutorial4,001,2023-10-17_19h49.07.799,tutorial4,2023.1.3,None,,0.40519378997851163,0.608235665,,,,,,,,,,0.40519378997851163,0.608235665
-50,x,0,0,0,0,19,0,76,0,,,,,204.23723562504165,205.2249053339474,205.2249053339474,205.2249053339474,205.2249053339474,205.23420958395582,206.2291013,206.2291013,,x,1,0.4922261229949072,None,tutorial4,001,2023-10-17_19h49.07.799,tutorial4,2023.1.3,None,,0.4922261229949072,0.4381499569863081,,,,,,,,,,0.4922261229949072,0.4381499569863081
150,v,0,0,0,0,19,1,77,1,,,,,206.73682920902502,207.72404433402698,207.72404433402698,207.72404433402698,207.72404433402698,207.73405462503433,208.72989312501159,208.72989312501159,,v,1,0.2705884149763733,None,tutorial4,001,2023-10-17_19h49.07.799,tutorial4,2023.1.3,None,,0.2705884149763733,0.6858943739207461,,,,,,,,,,0.2705884149763733,0.6858943739207461
50,c,0,0,0,0,19,2,78,2,,,,,209.01248312497046,209.99725508398842,209.99725508398842,209.99725508398842,209.99725508398842,210.00700245902408,210.99581654195208,210.99581654195208,,c,1,0.28082874801475555,None,tutorial4,001,2023-10-17_19h49.07.799,tutorial4,2023.1.3,None,,0.28082874801475555,0.35292720689903945,,,,,,,,,,0.28082874801475555,0.35292720689903945
-150,z,0,0,0,0,19,3,79,3,,,,,211.28702687495388,212.27431479201186,212.27431479201186,212.27431479201186,212.27431479201186,212.28401725005824,213.2793155000545,213.2793155000545,,z,1,0.32915358198806643,None,tutorial4,001,2023-10-17_19h49.07.799,tutorial4,2023.1.3,None,,0.32915358198806643,0.5150860409485176,,,,,,,,,,0.32915358198806643,0.5150860409485176
-50,x,0,0,0,0,20,0,80,0,,,,,213.6203887090087,214.60864858399145,214.60864858399145,214.60864858399145,214.60864858399145,214.6174462919589,215.60424104204867,215.60424104204867,,x,1,0.35153095703572035,None,tutorial4,001,2023-10-17_19h49.07.799,tutorial4,2023.1.3,None,,0.35153095703572035,0.3831054159672931,,,,,,,,,,0.35153095703572035,0.3831054159672931
150,v,0,0,0,0,20,1,81,1,,,,,215.9705587089993,216.95749575004447,216.95749575004447,216.95749575004447,216.95749575004447,216.9676449999679,217.95417541696224,217.95417541696224,,v,1,0.34067091601900756,None,tutorial4,001,2023-10-17_19h49.07.799,tutorial4,2023.1.3,None,,0.34067091601900756,0.5311684570042416,,,,,,,,,,0.34067091601900756,0.5311684570042416
50,c,0,0,0,0,20,2,82,2,,,,,218.30222954205237,219.29107137501705,219.29107137501705,219.29107137501705,219.29107137501705,219.3008271669969,220.2959104590118,220.2959104590118,,c,1,0.6360924149630591,None,tutorial4,001,2023-10-17_19h49.07.799,tutorial4,2023.1.3,None,,0.6360924149630591,0.4237649979768321,,,,,,,,,,0.6360924149630591,0.4237649979768321
-50,x,0,0,0,0,21,0,84,0,,,,,224.0887619999703,225.07489333394915,225.07489333394915,225.07489333394915,225.07489333394915,225.08388799999375,226.0794395840494,226.0794395840494,,x,1,0.7762064980342984,None,tutorial4,001,2023-10-17_19h49.07.799,tutorial4,2023.1.3,None,,0.7762064980342984,0.7460770399775356,,,,,,,,,,0.7762064980342984,0.7460770399775356
150,v,0,0,0,0,21,1,85,1,,,,,226.88520966703072,227.85796608403325,227.85796608403325,227.85796608403325,227.85796608403325,227.8798883750569,228.86281075002626,228.86281075002626,,v,1,0.3534922479884699,None,tutorial4,001,2023-10-17_19h49.07.799,tutorial4,2023.1.3,None,,0.3534922479884699,0.9937920820666477,,,,,,,,,,0.3534922479884699,0.9937920820666477
50,c,0,0,0,0,21,2,86,2,,,,,229.2295211669989,230.21420375001617,230.21420375001617,230.21420375001617,230.21420375001617,230.22398933395743,231.21281258400995,231.21281258400995,,c,1,0.789843499,None,tutorial4,001,2023-10-17_19h49.07.799,tutorial4,2023.1.3,None,,0.789843499,0.6044479149859399,,,,,,,,,,0.789843499,0.6044479149859399
-150,z,0,0,0,0,21,3,87,3,,,,,232.01294033403974,232.99742779205553,232.99742779205553,232.99742779205553,232.99742779205553,233.0071185840061,233.99609404196963,233.99609404196963,,z,1,0.40159233193844557,None,tutorial4,001,2023-10-17_19h49.07.799,tutorial4,2023.1.3,None,,0.40159233193844557,0.9232934979954734,,,,,,,,,,0.40159233193844557,0.9232934979954734
-50,x,0,0,0,0,22,0,88,0,,,,,234.4128368749516,235.3974960000487,235.3974960000487,235.3974960000487,235.3974960000487,235.40722225001082,236.39627895900048,236.39627895900048,,x,1,0.2944174570729956,None,tutorial4,001,2023-10-17_19h49.07.799,tutorial4,2023.1.3,None,,0.2944174570729956,0.9372369989287108,,,,,,,,,,0.2944174570729956,0.9372369989287108
150,v,0,0,0,0,22,1,89,1,,,,,236.70411504199728,237.69123025005683,237.69123025005683,237.69123025005683,237.69123025005683,237.7007310000481,238.68846533400938,238.68846533400938,,v,1,0.376410874,None,tutorial4,001,2023-10-17_19h49.07.799,tutorial4,2023.1.3,None,,0.376410874,0.6490898319752887,,,,,,,,,,0.376410874,0.6490898319752887
50,c,0,0,0,0,22,2,90,2,,,,,239.0794637920335,240.06427233398426,240.06427233398426,240.06427233398426,240.06427233398426,240.07304120901972,241.07233141700272,241.07233141700272,,c,1,0.36539337399881333,None,tutorial4,001,2023-10-17_19h49.07.799,tutorial4,2023.1.3,None,,0.36539337399881333,0.7263532900251448,,,,,,,,,,0.36539337399881333,0.7263532900251448
-150,z,0,0,0,0,22,3,91,3,,,,,241.45420204196125,242.44156937499065,242.44156937499065,242.44156937499065,242.44156937499065,242.45050404197536,243.43770841695368,243.43770841695368,,z,1,0.2739077489823103,None,tutorial4,001,2023-10-17_19h49.07.799,tutorial4,2023.1.3,None,,0.2739077489823103,0.7764294990338385,,,,,,,,,,0.2739077489823103,0.7764294990338385
-50,x,0,0,0,0,23,0,92,0,,,,,243.7206498340238,244.71283154201228,244.71283154201228,244.71283154201228,244.71283154201228,244.72238616703544,245.71329120895825,245.71329120895825,,x,1,0.6247862069867551,None,tutorial4,001,2023-10-17_19h49.07.799,tutorial4,2023.1.3,None,,0.6247862069867551,1.0247621649177745,,,,,,,,,,0.6247862069867551,1.0247621649177745
150,v,0,0,0,0,23,1,93,1,,,,,246.35403733397834,247.34202358406037,247.34202358406037,247.34202358406037,247.34202358406037,247.3515281,248.3463510000147,248.3463510000147,,v,1,0.2854127479949966,None,tutorial4,001,2023-10-17_19h49.07.799,tutorial4,2023.1.3,None,,0.2854127479949966,0.8192632899153978,,,,,,,,,,0.2854127479949966,0.8192632899153978
50,c,0,0,0,0,23,2,94,2,,,,,248.64657974999864,249.64023749995977,249.64023749995977,249.64023749995977,249.64023749995977,249.64023749995977,250.6392230000347,250.6392230000347,,c,1,0.6721264569787309,None,tutorial4,001,2023-10-17_19h49.07.799,tutorial4,2023.1.3,None,,0.6721264569787309,0.49214416497852653,,,,,,,,,,0.6721264569787309,0.49214416497852653
-150,z,0,0,0,0,23,3,95,3,,,,,251.31937208399177,252.30790891696233,252.30790891696233,252.30790891696233,252.30790891696233,252.3175262500299,253.31297916697804,253.31297916697804,,z,1,0.3084231649991125,None,tutorial4,001,2023-10-17_19h49.07.799,tutorial4,2023.1.3,None,,0.3084231649991125,1.0518677909858525,,,,,,,,,,0.3084231649991125,1.0518677909858525
-50,x,0,0,0,0,24,0,96,0,,,,,253.63739629194606,254.6244807499461,254.6244807499461,254.6244807499461,254.6244807499461,254.6345839999849,255.62174608395435,255.62174608395435,,x,1,0.2599843320203945,None,tutorial4,001,2023-10-17_19h49.07.799,tutorial4,2023.1.3,None,,0.2599843320203945,0.6888614159543067,,,,,,,,,,0.2599843320203945,0.6888614159543067
150,v,0,0,0,0,24,1,97,1,,,,,255.89637054200284,256.8903683749959,256.8903683749959,256.8903683749959,256.8903683749959,256.8903683749959,257.87918162497226,257.87918162497226,,v,1,0.31903441494796425,None,tutorial4,001,2023-10-17_19h49.07.799,tutorial4,2023.1.3,None,,0.31903441494796425,0.7131312909768894,,,,,,,,,,0.31903441494796425,0.7131312909768894
50,c,0,0,0,0,24,2,98,2,,,,,258.2131459170487,259.2066849169787,259.2066849169787,259.2066849169787,259.2066849169787,259.2066849169787,260.20478154195007,260.20478154195007,,c,1,0.2963398739229888,None,tutorial4,001,2023-10-17_19h49.07.799,tutorial4,2023.1.3,None,,0.2963398739229888,0.9031058320542797,,,,,,,,,,0.2963398739229888,0.9031058320542797
-150,z,0,0,0,0,24,3,99,3,,,,,260.5133455840405,261.51376216695644,261.51376216695644,261.51376216695644,261.51376216695644,261.53096737503074,262.50559079204686,262.50559079204686,,z,1,0.2811815820168704,None,tutorial4,001,2023-10-17_19h49.07.799,tutorial4,2023.1.3,None,,0.2811815820168704,0.7017667490290478,,,,,,,,,,0.2811815820168704,0.7017667490290478
-50,x,0,0,0,0,25,0,100,0,,,,,262.80423583404627,263.7923367089825,263.7923367089825,263.7923367089825,263.7923367089825,263.8012395419646,264.7886445840122,264.7886445840122,,x,1,0.2886375399539247,None,tutorial4,001,2023-10-17_19h49.07.799,tutorial4,2023.1.3,None,,0.2886375399539247,0.5359299989650026,,,,,,,,,,0.2886375399539247,0.5359299989650026
150,v,0,0,0,0,25,1,101,1,,,,,265.0874655840453,266.07443579204846,266.07443579204846,266.07443579204846,266.07443579204846,266.0843815,267.0709668339696,267.0709668339696,,v,1,0.26058653998188674,None,tutorial4,001,2023-10-17_19h49.07.799,tutorial4,2023.1.3,None,,0.26058653998188674,0.43104708194732666,,,,,,,,,,0.26058653998188674,0.43104708194732666
50,c,0,0,0,0,25,2,102,2,,,,,267.34663341694977,268.34724375000224,268.34724375000224,268.34724375000224,268.34724375000224,268.36434162501246,269.32984333403874,269.32984333403874,,c,1,0.23549478990025818,None,tutorial4,001,2023-10-17_19h49.07.799,tutorial4,2023.1.3,None,,0.23549478990025818,0.4528335399227217,,,,,,,,,,0.23549478990025818,0.4528335399227217
-150,z,0,0,0,0,25,3,103,3,,,,,269.5799719589995,270.56470987503417,270.56470987503417,270.56470987503417,270.56470987503417,270.5744636669988,271.56336499995086,271.56336499995086,,z,1,0.24391033197753131,None,tutorial4,001,2023-10-17_19h49.07.799,tutorial4,2023.1.3,None,,0.24391033197753131,0.6329694980522618,,,,,,,,,,0.24391033197753131,0.6329694980522618
-50,x,0,0,0,0,26,0,104,0,,,,,271.8216147919884,272.80808766698465,272.80808766698465,272.80808766698465,272.80808766698465,272.8177603749791,273.8131902089808,273.8131902089808,,x,1,0.28216362395323813,None,tutorial4,001,2023-10-17_19h49.07.799,tutorial4,2023.1.3,None,,0.28216362395323813,0.45355128997471184,,,,,,,,,,0.28216362395323813,0.45355128997471184
150,v,0,0,0,0,26,1,105,1,,,,,274.1031586669851,275.0919942499604,275.0919942499604,275.0919942499604,275.0919942499604,275.1009266669862,276.08747370901983,276.08747370901983,277.08005841705017,v,1,1.2845586650073528,None,tutorial4,001,2023-10-17_19h49.07.799,tutorial4,2023.1.3,None,,1.2845586650073528,0.8191237909486517,,,,,,,,,,1.2845586650073528,0.8191237909486517
50,c,0,0,0,0,26,2,106,2,,,,,277.3889308340149,278.3755247090012,278.3755247090012,278.3755247090012,278.3755247090012,278.38475391699467,279.372538,279.372538,,c,1,0.6116353739053011,None,tutorial4,001,2023-10-17_19h49.07.799,tutorial4,2023.1.3,None,,0.6116353739053011,0.44335158192552626,,,,,,,,,,0.6116353739053011,0.44335158192552626
-150,z,0,0,0,0,26,3,107,3,,,,,279.9969814589713,280.9974091249751,280.9974091249751,280.9974091249751,280.9974091249751,281.01453508401755,281.97990795900114,281.97990795900114,,z,1,0.4945124570513144,None,tutorial4,001,2023-10-17_19h49.07.799,tutorial4,2023.1.3,None,,0.4945124570513144,0.7802313729189336,,,,,,,,,,0.4945124570513144,0.7802313729189336
-50,x,0,0,0,0,27,0,108,0,,,,,282.4879179589916,283.4745906670578,283.4745906670578,283.4745906670578,283.4745906670578,283.4845809589606,284.4801369589986,284.4801369589986,,x,1,0.3009729570476338,None,tutorial4,001,2023-10-17_19h49.07.799,tutorial4,2023.1.3,None,,0.3009729570476338,0.6446665399707854,,,,,,,,,,0.3009729570476338,0.6446665399707854
150,v,0,0,0,0,27,1,109,1,,,,,284.79671716701705,285.7974602499744,285.7974602499744,285.7974602499744,285.7974602499744,285.81457291694824,286.78006625000853,286.78006625000853,,v,1,0.3583111650077626,None,tutorial4,001,2023-10-17_19h49.07.799,tutorial4,2023.1.3,None,,0.3583111650077626,0.6635148740606382,,,,,,,,,,0.3583111650077626,0.6635148740606382
50,c,0,0,0,0,27,2,110,2,,,,,287.15444866695907,288.14192037505563,288.14192037505563,288.14192037505563,288.14192037505563,288.1516653340077,289.14678670896683,289.14678670896683,,c,1,0.26409949897788465,None,tutorial4,001,2023-10-17_19h49.07.799,tutorial4,2023.1.3,None,,0.26409949897788465,0.5154924150556326,,,,,,,,,,0.26409949897788465,0.5154924150556326
-150,z,0,0,0,0,27,3,111,3,,,,,289.42172054201365,290.4091705000028,290.4091705000028,290.4091705000028,290.4091705000028,290.4180361670442,291.40562662505545,291.40562662505545,,z,1,0.31192108197137713,None,tutorial4,001,2023-10-17_19h49.07.799,tutorial4,2023.1.3,None,,0.31192108197137713,0.6587890399387106,,,,,,,,,,0.31192108197137713,0.6587890399387106
-50,x,0,0,0,0,28,0,112,0,,,,,291.7301688339794,292.7150756670162,292.7150756670162,292.7150756670162,292.7150756670162,292.7248522089794,293.71337095904164,293.71337095904164,,x,1,0.2523147069150582,None,tutorial4,001,2023-10-17_19h49.07.799,tutorial4,2023.1.3,None,,0.2523147069150582,0.864004499,,,,,,,,,,0.2523147069150582,0.864004499
150,v,0,0,0,0,28,1,113,1,,,,,293.98029687500093,294.97372624999844,294.97372624999844,294.97372624999844,294.97372624999844,294.97372624999844,295.9636062090285,295.9636062090285,,v,1,0.2811468730214983,None,tutorial4,001,2023-10-17_19h49.07.799,tutorial4,2023.1.3,None,,0.2811468730214983,0.7280607069842517,,,,,,,,,,0.2811468730214983,0.7280607069842517
50,c,0,0,0,0,28,2,114,2,,,,,296.2535339590395,297.2418950420106,297.2418950420106,297.2418950420106,297.2418950420106,297.2508713339921,298.2391332089901,298.2391332089901,,c,1,0.29685991595033556,None,tutorial4,001,2023-10-17_19h49.07.799,tutorial4,2023.1.3,None,,0.29685991595033556,0.3856450819876045,,,,,,,,,,0.29685991595033556,0.3856450819876045
-150,z,0,0,0,0,28,3,115,3,,,,,298.54718537500594,299.53105270897504,299.53105270897504,299.53105270897504,299.53105270897504,299.5407630839618,300.5385797499912,300.5385797499912,,z,1,0.2567146238870919,None,tutorial4,001,2023-10-17_19h49.07.799,tutorial4,2023.1.3,None,,0.2567146238870919,0.7630717899883166,,,,,,,,,,0.2567146238870919,0.7630717899883166
-50,x,0,0,0,0,29,0,116,0,,,,,300.8052507919492,301.7927717920393,301.7927717920393,301.7927717920393,301.7927717920393,301.8018039589515,302.79695758398157,302.79695758398157,,x,1,0.2258169149281457,None,tutorial4,001,2023-10-17_19h49.07.799,tutorial4,2023.1.3,None,,0.2258169149281457,0.6315544990357012,,,,,,,,,,0.2258169149281457,0.6315544990357012
150,v,0,0,0,0,29,1,117,1,,,,,303.03824416699354,304.02195387496613,304.02195387496613,304.02195387496613,304.02195387496613,304.0307281250134,305.0228618750116,305.0228618750116,,v,1,0.4029880400048569,None,tutorial4,001,2023-10-17_19h49.07.799,tutorial4,2023.1.3,None,,0.4029880400048569,0.37738428998272866,,,,,,,,,,0.4029880400048569,0.37738428998272866
50,c,0,0,0,0,29,2,118,2,,,,,305.43932795897126,306.43183854199015,306.43183854199015,306.43183854199015,306.43183854199015,306.4415368339978,307.4303726250073,307.4303726250073,,c,1,0.27500637306366116,None,tutorial4,001,2023-10-17_19h49.07.799,tutorial4,2023.1.3,None,,0.27500637306366116,0.4948264149716124,,,,,,,,,,0.27500637306366116,0.4948264149716124
-150,z,0,0,0,0,29,3,119,3,,,,,307.7224337089574,308.70864275004715,308.70864275004715,308.70864275004715,308.70864275004715,308.7184147919761,309.7062491249526,309.7062491249526,,z,1,0.3988526239991188,None,tutorial4,001,2023-10-17_19h49.07.799,tutorial4,2023.1.3,None,,0.3988526239991188,0.6223327070474625,,,,,,,,,,0.3988526239991188,0.6223327070474625
-50,x,0,0,0,0,30,0,120,0,,,,,310.1217087500263,311.1094813339878,311.1094813339878,311.1094813339878,311.1094813339878,311.1185166250216,312.1063265419798,312.1063265419798,,x,1,0.26368937303777784,None,tutorial4,001,2023-10-17_19h49.07.799,tutorial4,2023.1.3,None,,0.26368937303777784,0.4763384989928454,,,,,,,,,,0.26368937303777784,0.4763384989928454
150,v,0,0,0,0,30,1,121,1,,,,,312.38050329196267,313.3649686250137,313.3649686250137,313.3649686250137,313.3649686250137,313.3747488340596,314.3637901,314.3637901,,v,1,0.31069245690014213,None,tutorial4,001,2023-10-17_19h49.07.799,tutorial4,2023.1.3,None,,0.31069245690014213,0.7857145819580182,,,,,,,,,,0.31069245690014213,0.7857145819580182
50,c,0,0,0,0,30,2,122,2,,,,,314.68845712498296,315.67548054200597,315.67548054200597,315.67548054200597,315.67548054200597,315.68497445899993,316.67151616699994,316.67151616699994,,c,1,0.29795612394809723,None,tutorial4,001,2023-10-17_19h49.07.799,tutorial4,2023.1.3,None,,0.29795612394809723,0.5443262910703197,,,,,,,,,,0.29795612394809723,0.5443262910703197
-150,z,0,0,0,0,30,3,123,3,,,,,316.9805514999898,317.9652176250238,317.9652176250238,317.9652176250238,317.9652176250238,317.97501916706096,318.9637735419674,318.9637735419674,,z,1,0.32234449894167483,None,tutorial4,001,2023-10-17_19h49.07.799,tutorial4,2023.1.3,None,,0.32234449894167483,0.7996752070030198,,,,,,,,,,0.32234449894167483,0.7996752070030198
-50,x,0,0,0,0,31,0,124,0,,,,,319.2973942919634,320.28489733405877,320.28489733405877,320.28489733405877,320.28489733405877,320.2976726,321.2805549999466,321.2805549999466,,x,1,0.2756047489820048,None,tutorial4,001,2023-10-17_19h49.07.799,tutorial4,2023.1.3,None,,0.2756047489820048,0.8626059149391949,,,,,,,,,,0.2756047489820048,0.8626059149391949
150,v,0,0,0,0,31,1,125,1,,,,,321.57155829202384,322.55975104204845,322.55975104204845,322.55975104204845,322.55975104204845,322.5686502919998,323.56424787500873,323.56424787500873,,v,1,0.3063107489142567,None,tutorial4,001,2023-10-17_19h49.07.799,tutorial4,2023.1.3,None,,0.3063107489142567,0.789267999,,,,,,,,,,0.3063107489142567,0.789267999
50,c,0,0,0,0,31,2,126,2,,,,,323.8808035419788,324.86803554196376,324.86803554196376,324.86803554196376,324.86803554196376,324.88126745901536,325.8638250840595,325.8638250840595,,c,1,0.3255817909957841,None,tutorial4,001,2023-10-17_19h49.07.799,tutorial4,2023.1.3,None,,0.3255817909957841,0.6520961659261957,,,,,,,,,,0.3255817909957841,0.6520961659261957
-150,z,0,0,0,0,31,3,127,3,,,,,326.2050945420051,327.1916465839604,327.1916465839604,327.1916465839604,327.1916465839604,327.2017441249918,328.19719704205636,328.19719704205636,,z,1,0.23875812289770693,None,tutorial4,001,2023-10-17_19h49.07.799,tutorial4,2023.1.3,None,,0.23875812289770693,0.45154437399469316,,,,,,,,,,0.23875812289770693,0.45154437399469316
-50,x,0,0,0,0,32,0,128,0,,,,,328.4472805840196,329.4415153750451,329.4415153750451,329.4415153750451,329.4415153750451,329.4415153750451,330.43057129206136,330.43057129206136,,x,1,0.24216333194635808,None,tutorial4,001,2023-10-17_19h49.07.799,tutorial4,2023.1.3,None,,0.24216333194635808,0.6012886229436845,,,,,,,,,,0.24216333194635808,0.6012886229436845
150,v,0,0,0,0,32,1,129,1,,,,,330.6885317,331.6761708339909,331.6761708339909,331.6761708339909,331.6761708339909,331.6851501669735,332.672347,332.672347,,v,1,0.2380039570853114,None,tutorial4,001,2023-10-17_19h49.07.799,tutorial4,2023.1.3,None,,0.2380039570853114,0.4713039150228724,,,,,,,,,,0.2380039570853114,0.4713039150228724
50,c,0,0,0,0,32,2,130,2,,,,,332.92183787503745,333.90896329202224,333.90896329202224,333.90896329202224,333.90896329202224,333.9186222499702,334.91512666700874,334.91512666700874,,c,1,0.2717548740329221,None,tutorial4,001,2023-10-17_19h49.07.799,tutorial4,2023.1.3,None,,0.2717548740329221,0.6752113319234923,,,,,,,,,,0.2717548740329221,0.6752113319234923
-150,z,0,0,0,0,32,3,131,3,,,,,335.19736487499904,336.1981282499619,336.1981282499619,336.1981282499619,336.1981282499619,336.2151648750296,337.18843141698744,337.18843141698744,,z,1,0.310845124,None,tutorial4,001,2023-10-17_19h49.07.799,tutorial4,2023.1.3,None,,0.310845124,0.656516915,,,,,,,,,,0.310845124,0.656516915
-50,x,0,0,0,0,33,0,132,0,,,,,337.5142858750187,338.51474649994634,338.51474649994634,338.51474649994634,338.51474649994634,338.53148154204246,339.49741891701706,339.49741891701706,,x,1,0.2680698740296066,None,tutorial4,001,2023-10-17_19h49.07.799,tutorial4,2023.1.3,None,,0.2680698740296066,0.5894269570708275,,,,,,,,,,0.2680698740296066,0.5894269570708275
150,v,0,0,0,0,33,1,133,1,,,,,339.7808461249806,340.7814229170326,340.7814229170326,340.7814229170326,340.7814229170326,340.7980436249636,341.77317162498366,341.77317162498366,,v,1,0.4258428319590166,None,tutorial4,001,2023-10-17_19h49.07.799,tutorial4,2023.1.3,None,,0.4258428319590166,0.6302721650572494,,,,,,,,,,0.4258428319590166,0.6302721650572494
50,c,0,0,0,0,33,2,134,2,,,,,342.2143469169969,343.21471641701646,343.21471641701646,343.21471641701646,343.21471641701646,343.2319531670073,344.20613199996296,344.20613199996296,,c,1,0.3659530410077423,None,tutorial4,001,2023-10-17_19h49.07.799,tutorial4,2023.1.3,None,,0.3659530410077423,0.5443481240654364,,,,,,,,,,0.3659530410077423,0.5443481240654364
-150,z,0,0,0,0,33,3,135,3,,,,,344.58870520896744,345.5761425839737,345.5761425839737,345.5761425839737,345.5761425839737,345.5855145419482,346.5723224170506,346.5723224170506,,z,1,0.6804206239758059,None,tutorial4,001,2023-10-17_19h49.07.799,tutorial4,2023.1.3,None,,0.6804206239758059,0.5484562910860404,,,,,,,,,,0.6804206239758059,0.5484562910860404
-50,x,0,0,0,0,34,0,136,0,,,,,347.2642739589792,348.2485740419943,348.2485740419943,348.2485740419943,348.2485740419943,348.25778529199306,349.25636054202914,349.25636054202914,,x,1,0.2766875399975106,None,tutorial4,001,2023-10-17_19h49.07.799,tutorial4,2023.1.3,None,,0.2766875399975106,0.5978637479711324,,,,,,,,,,0.2766875399975106,0.5978637479711324
150,v,0,0,0,0,34,1,137,1,,,,,349.5476029169513,350.5481409999775,350.5481409999775,350.5481409999775,350.5481409999775,350.5653390419902,351.5309188340325,351.5309188340325,,v,1,0.3071643318980932,None,tutorial4,001,2023-10-17_19h49.07.799,tutorial4,2023.1.3,None,,0.3071643318980932,0.9809453740017489,,,,,,,,,,0.3071643318980932,0.9809453740017489
50,c,0,0,0,0,34,2,138,2,,,,,351.85551545897033,352.84235533396713,352.84235533396713,352.84235533396713,352.84235533396713,352.85218866704963,353.8483723340323,353.8483723340323,,c,1,0.3356044569518417,None,tutorial4,001,2023-10-17_19h49.07.799,tutorial4,2023.1.3,None,,0.3356044569518417,0.42239037388935685,,,,,,,,,,0.3356044569518417,0.42239037388935685
-150,z,0,0,0,0,34,3,139,3,,,,,354.1977144170087,355.1982686249539,355.1982686249539,355.1982686249539,355.1982686249539,355.21529349999037,356.18093675002456,356.18093675002456,,z,1,0.4089667070657015,None,tutorial4,001,2023-10-17_19h49.07.799,tutorial4,2023.1.3,None,,0.4089667070657015,0.7600187478819862,,,,,,,,,,0.4089667070657015,0.7600187478819862
-50,x,0,0,0,0,35,0,140,0,,,,,356.60551333404146,357.5929719590349,357.5929719590349,357.5929719590349,357.5929719590349,357.6027639589738,358.5897551670205,358.5897551670205,,x,1,0.33465566497761756,None,tutorial4,001,2023-10-17_19h49.07.799,tutorial4,2023.1.3,None,,0.33465566497761756,0.5671816229587421,,,,,,,,,,0.33465566497761756,0.5671816229587421
50,c,0,0,0,0,35,2,142,2,,,,,361.5143298750045,362.5086978339823,362.5086978339823,362.5086978339823,362.5086978339823,362.5086978339823,363.50574554200284,363.50574554200284,,c,1,0.7018943319562823,None,tutorial4,001,2023-10-17_19h49.07.799,tutorial4,2023.1.3,None,,0.7018943319562823,0.7040357070509344,,,,,,,,,,0.7018943319562823,0.7040357070509344
-150,z,0,0,0,0,35,3,143,3,,,,,364.2219222090207,365.2045955420472,365.2045955420472,365.2045955420472,365.2045955420472,365.2146633,366.20478124998044,366.20478124998044,,z,1,0.8185546649619937,None,tutorial4,001,2023-10-17_19h49.07.799,tutorial4,2023.1.3,None,,0.8185546649619937,0.36453103995881975,,,,,,,,,,0.8185546649619937,0.36453103995881975
-50,x,0,0,0,0,36,0,144,0,,,,,367.0392134169815,368.02637337497436,368.02637337497436,368.02637337497436,368.02637337497436,368.0361838750541,369.0309960839804,369.0309960839804,,x,1,0.3472679569385946,None,tutorial4,001,2023-10-17_19h49.07.799,tutorial4,2023.1.3,None,,0.3472679569385946,0.5030455400701612,,,,,,,,,,0.3472679569385946,0.5030455400701612
150,v,0,0,0,0,36,1,145,1,,,,,369.38875787495635,370.3765265,370.3765265,370.3765265,370.3765265,370.3858079169877,371.38107854197733,371.38107854197733,,v,1,0.459044415,None,tutorial4,001,2023-10-17_19h49.07.799,tutorial4,2023.1.3,None,,0.459044415,0.6783423740416765,,,,,,,,,,0.459044415,0.6783423740416765
50,c,0,0,0,0,36,2,146,2,,,,,371.85547270905226,372.84243641700596,372.84243641700596,372.84243641700596,372.84243641700596,372.85236837505363,373.84014079195913,373.84014079195913,,c,1,0.4447293740231544,None,tutorial4,001,2023-10-17_19h49.07.799,tutorial4,2023.1.3,None,,0.4447293740231544,0.7458142898976803,,,,,,,,,,0.4447293740231544,0.7458142898976803
-150,z,0,0,0,0,36,3,147,3,,,,,374.2980286249658,375.29851241700817,375.29851241700817,375.29851241700817,375.29851241700817,375.31515966705047,376.28111366694793,376.28111366694793,,z,1,0.6268126239301637,None,tutorial4,001,2023-10-17_19h49.07.799,tutorial4,2023.1.3,None,,0.6268126239301637,0.5285503319464624,,,,,,,,,,0.6268126239301637,0.5285503319464624
-50,x,0,0,0,0,37,0,148,0,,,,,376.9222824999597,377.9097204999998,377.9097204999998,377.9097204999998,377.9097204999998,377.91851566697005,378.9070609170012,378.9070609170012,,x,1,0.3103528739884496,None,tutorial4,001,2023-10-17_19h49.07.799,tutorial4,2023.1.3,None,,0.3103528739884496,0.49854478996712714,,,,,,,,,,0.3103528739884496,0.49854478996712714
150,v,0,0,0,0,37,1,149,1,,,,,379.23105983401183,380.21614566701464,380.21614566701464,380.21614566701464,380.21614566701464,380.22593158402015,381.2222772920504,381.2222772920504,,v,1,0.5342324149096385,None,tutorial4,001,2023-10-17_19h49.07.799,tutorial4,2023.1.3,None,,0.5342324149096385,0.5385078729595989,,,,,,,,,,0.5342324149096385,0.5385078729595989
50,c,0,0,0,0,37,2,150,2,,,,,381.77237708400935,382.7606613340322,382.7606613340322,382.7606613340322,382.7606613340322,382.76950545900036,383.7568719589617,383.7568719589617,,c,1,0.36166941502597183,None,tutorial4,001,2023-10-17_19h49.07.799,tutorial4,2023.1.3,None,,0.36166941502597183,0.42952778993640095,,,,,,,,,,0.36166941502597183,0.42952778993640095
-150,z,0,0,0,0,37,3,151,3,,,,,384.13148850004654,385.1319800839992,385.1319800839992,385.1319800839992,385.1319800839992,385.1485836249776,386.1147727089701,386.1147727089701,,z,1,0.5891142908949405,None,tutorial4,001,2023-10-17_19h49.07.799,tutorial4,2023.1.3,None,,0.5891142908949405,0.6752450820058584,,,,,,,,,,0.5891142908949405,0.6752450820058584
-50,x,0,0,0,0,38,0,152,0,,,,,386.71460995904636,387.70828825002536,387.70828825002536,387.70828825002536,387.70828825002536,387.70828825002536,388.6984419169603,388.6984419169603,,x,1,0.9029784160666168,None,tutorial4,001,2023-10-17_19h49.07.799,tutorial4,2023.1.3,None,,0.9029784160666168,0.5099360409658402,,,,,,,,,,0.9029784160666168,0.5099360409658402
150,v,0,0,0,0,38,1,153,1,,,,,389.61453649995383,390.59954995894805,390.59954995894805,390.59954995894805,390.59954995894805,390.60936350002885,391.59803670900874,391.59803670900874,,v,1,0.36419383191969246,None,tutorial4,001,2023-10-17_19h49.07.799,tutorial4,2023.1.3,None,,0.36419383191969246,0.5031792899826542,,,,,,,,,,0.36419383191969246,0.5031792899826542
50,c,0,0,0,0,38,2,154,2,,,,,391.9723456669599,392.95992395898793,392.95992395898793,392.95992395898793,392.95992395898793,392.9699524589814,393.9564544589957,393.9564544589957,,c,1,0.2669387069763616,None,tutorial4,001,2023-10-17_19h49.07.799,tutorial4,2023.1.3,None,,0.2669387069763616,0.5947581229265779,,,,,,,,,,0.2669387069763616,0.5947581229265779
-150,z,0,0,0,0,38,3,155,3,,,,,394.2394604169531,395.2266827500425,395.2266827500425,395.2266827500425,395.2266827500425,395.23592174996156,396.23146983399056,396.23146983399056,,z,1,0.6526530400151387,None,tutorial4,001,2023-10-17_19h49.07.799,tutorial4,2023.1.3,None,,0.6526530400151387,1.103358416003175,,,,,,,,,,0.6526530400151387,1.103358416003175
-50,x,0,0,0,0,39,0,156,0,,,,,396.89817658404354,397.89880683401134,397.89880683401134,397.89880683401134,397.89880683401134,397.91540770896245,398.8814281,398.8814281,,x,1,0.3352346239844337,None,tutorial4,001,2023-10-17_19h49.07.799,tutorial4,2023.1.3,None,,0.3352346239844337,0.9151283738901839,,,,,,,,,,0.3352346239844337,0.9151283738901839
150,v,0,0,0,0,39,1,157,1,,,,,399.2316966250073,400.21563870902173,400.21563870902173,400.21563870902173,400.21563870902173,400.2252850000514,401.2147288339911,401.2147288339911,,v,1,0.3462302489206195,None,tutorial4,001,2023-10-17_19h49.07.799,tutorial4,2023.1.3,None,,0.3462302489206195,0.8792512069921941,,,,,,,,,,0.3462302489206195,0.8792512069921941
50,c,0,0,0,0,39,2,158,2,,,,,401.57295599998906,402.5601279169787,402.5601279169787,402.5601279169787,402.5601279169787,402.56940058397595,403.5647994589526,403.5647994589526,,c,1,0.32277749897912145,None,tutorial4,001,2023-10-17_19h49.07.799,tutorial4,2023.1.3,None,,0.32277749897912145,0.5310577489435673,,,,,,,,,,0.32277749897912145,0.5310577489435673
-150,z,0,0,0,0,39,3,159,3,,,,,403.89812899997924,404.89229833404534,404.89229833404534,404.89229833404534,404.89229833404534,404.89229833404534,405.8820216669701,405.8820216669701,,z,1,0.5343567070085555,None,tutorial4,001,2023-10-17_19h49.07.799,tutorial4,2023.1.3,None,,0.5343567070085555,0.393700082,,,,,,,,,,0.5343567070085555,0.393700082
-50,x,0,0,0,0,40,0,160,0,,,,,406.43166995898355,407.4185469170334,407.4185469170334,407.4185469170334,407.4185469170334,407.4326463750331,408.41525199997704,408.41525199997704,,x,1,0.6853744979016483,None,tutorial4,001,2023-10-17_19h49.07.799,tutorial4,2023.1.3,None,,0.6853744979016483,0.6427037069806829,,,,,,,,,,0.6853744979016483,0.6427037069806829
150,v,0,0,0,0,40,1,161,1,,,,,409.11505233403295,410.11561029194854,410.11561029194854,410.11561029194854,410.11561029194854,410.13225008395966,411.09826679201797,411.09826679201797,412.0889515839517,v,1,1.2791165399830788,None,tutorial4,001,2023-10-17_19h49.07.799,tutorial4,2023.1.3,None,,1.2791165399830788,0.5043147070100531,,,,,,,,,,1.2791165399830788,0.5043147070100531
50,c,0,0,0,0,40,2,162,2,,,,,412.39038400002755,413.3773398339981,413.3773398339981,413.3773398339981,413.3773398339981,413.3862418340286,414.38154483400285,414.38154483400285,,c,1,0.36399354005698115,None,tutorial4,001,2023-10-17_19h49.07.799,tutorial4,2023.1.3,None,,0.36399354005698115,0.30433170695323497,,,,,,,,,,0.36399354005698115,0.30433170695323497
-150,z,0,0,0,0,40,3,163,3,,,,,414.7562438750174,415.74366033403203,415.74366033403203,415.74366033403203,415.74366033403203,415.75290991703514,416.7482665,416.7482665,,z,1,0.31846795696765184,None,tutorial4,001,2023-10-17_19h49.07.799,tutorial4,2023.1.3,None,,0.31846795696765184,0.6859298320487142,,,,,,,,,,0.31846795696765184,0.6859298320487142
-50,x,0,0,0,0,41,0,164,0,,,,,417.0818480839953,418.07603654195555,418.07603654195555,418.07603654195555,418.07603654195555,418.07603654195555,419.0650304170558,419.0650304170558,,x,1,0.2526357490569353,None,tutorial4,001,2023-10-17_19h49.07.799,tutorial4,2023.1.3,None,,0.2526357490569353,0.5393280400894582,,,,,,,,,,0.2526357490569353,0.5393280400894582
150,v,0,0,0,0,41,1,165,1,,,,,419.3316365419887,420.3261883750092,420.3261883750092,420.3261883750092,420.3261883750092,420.3261883750092,421.32373658404686,421.32373658404686,,v,1,0.2889034979743883,None,tutorial4,001,2023-10-17_19h49.07.799,tutorial4,2023.1.3,None,,0.2889034979743883,0.7782419569557533,,,,,,,,,,0.2889034979743883,0.7782419569557533
50,c,0,0,0,0,41,2,166,2,,,,,421.6227075000061,422.61034466698766,422.61034466698766,422.61034466698766,422.61034466698766,422.6196778,423.6150650420459,423.6150650420459,,c,1,0.31438962393440306,None,tutorial4,001,2023-10-17_19h49.07.799,tutorial4,2023.1.3,None,,0.31438962393440306,0.5133404569933191,,,,,,,,,,0.31438962393440306,0.5133404569933191
-150,z,0,0,0,0,41,3,167,3,,,,,423.93953379197046,424.92722541699186,424.92722541699186,424.92722541699186,424.92722541699186,424.93643304205034,425.9316879590042,425.9316879590042,,z,1,0.7062447489006445,None,tutorial4,001,2023-10-17_19h49.07.799,tutorial4,2023.1.3,None,,0.7062447489006445,0.5968558320309967,,,,,,,,,,0.7062447489006445,0.5968558320309967
-50,x,0,0,0,0,42,0,168,0,,,,,426.6484388340032,427.64276195899583,427.64276195899583,427.64276195899583,427.64276195899583,427.64276195899583,428.6318102090154,428.6318102090154,,x,1,0.29389116493985057,None,tutorial4,001,2023-10-17_19h49.07.799,tutorial4,2023.1.3,None,,0.29389116493985057,0.7373207899508998,,,,,,,,,,0.29389116493985057,0.7373207899508998
150,v,0,0,0,0,42,1,169,1,,,,,428.93959658395033,429.92813424998894,429.92813424998894,429.92813424998894,429.92813424998894,429.9376441669883,430.9230360840447,430.9230360840447,,v,1,0.410496749,None,tutorial4,001,2023-10-17_19h49.07.799,tutorial4,2023.1.3,None,,0.410496749,0.33657941594719887,,,,,,,,,,0.410496749,0.33657941594719887
50,c,0,0,0,0,42,2,170,2,,,,,431.3483535000123,432.34920149995014,432.34920149995014,432.34920149995014,432.34920149995014,432.3658467499772,433.3318957090378,433.3318957090378,,c,1,0.3625759150600061,None,tutorial4,001,2023-10-17_19h49.07.799,tutorial4,2023.1.3,None,,0.3625759150600061,0.6360631659626961,,,,,,,,,,0.3625759150600061,0.6360631659626961
-150,z,0,0,0,0,42,3,171,3,,,,,433.7061986250337,434.6930746670114,434.6930746670114,434.6930746670114,434.6930746670114,434.70265520899557,435.6984549170593,435.6984549170593,,z,1,0.5307124990504235,None,tutorial4,001,2023-10-17_19h49.07.799,tutorial4,2023.1.3,None,,0.5307124990504235,0.6660218320321292,,,,,,,,,,0.5307124990504235,0.6660218320321292
-50,x,0,0,0,0,43,0,172,0,,,,,436.2397044999525,437.22791812499054,437.22791812499054,437.22791812499054,437.22791812499054,437.2369266250171,438.2244304,438.2244304,,x,1,0.3182703739730641,None,tutorial4,001,2023-10-17_19h49.07.799,tutorial4,2023.1.3,None,,0.3182703739730641,0.48306841508019716,,,,,,,,,,0.3182703739730641,0.48306841508019716
150,v,0,0,0,0,43,1,173,1,,,,,438.55665158398915,439.54391279199626,439.54391279199626,439.54391279199626,439.54391279199626,439.55295233405195,440.5398247919511,440.5398247919511,,v,1,0.693872707,None,tutorial4,001,2023-10-17_19h49.07.799,tutorial4,2023.1.3,None,,0.693872707,0.49653708189725876,,,,,,,,,,0.693872707,0.49653708189725876
50,c,0,0,0,0,43,2,174,2,,,,,441.2486920839874,442.2493492090143,442.2493492090143,442.2493492090143,442.2493492090143,442.2658862089738,443.23181033402216,443.23181033402216,,c,1,0.4763078319374472,None,tutorial4,001,2023-10-17_19h49.07.799,tutorial4,2023.1.3,None,,0.4763078319374472,0.5873897479614243,,,,,,,,,,0.4763078319374472,0.5873897479614243
-150,z,0,0,0,0,43,3,175,3,,,,,443.7229936249787,444.7108083340572,444.7108083340572,444.7108083340572,444.7108083340572,444.71997629199177,445.7071662,445.7071662,,z,1,0.2955330400727689,None,tutorial4,001,2023-10-17_19h49.07.799,tutorial4,2023.1.3,None,,0.2955330400727689,0.4516240409575403,,,,,,,,,,0.2955330400727689,0.4516240409575403
-50,x,0,0,0,0,44,0,176,0,,,,,446.0152641669847,447.00020929204766,447.00020929204766,447.00020929204766,447.00020929204766,447.0099309589714,447.99864991696086,447.99864991696086,,x,1,0.3588077489985153,None,tutorial4,001,2023-10-17_19h49.07.799,tutorial4,2023.1.3,None,,0.3588077489985153,0.5671366240130737,,,,,,,,,,0.3588077489985153,0.5671366240130737
150,v,0,0,0,0,44,1,177,1,,,,,448.37325737497304,449.3608615839621,449.3608615839621,449.3608615839621,449.3608615839621,449.36996229202487,450.35722416697536,450.35722416697536,,v,1,0.49664774897973984,None,tutorial4,001,2023-10-17_19h49.07.799,tutorial4,2023.1.3,None,,0.49664774897973984,0.5196757479570806,,,,,,,,,,0.49664774897973984,0.5196757479570806
50,c,0,0,0,0,44,2,178,2,,,,,450.8653341670288,451.86018262500875,451.86018262500875,451.86018262500875,451.86018262500875,451.86018262500875,452.85773499996867,452.85773499996867,,c,1,0.3379768739687279,None,tutorial4,001,2023-10-17_19h49.07.799,tutorial4,2023.1.3,None,,0.3379768739687279,0.7077519570011646,,,,,,,,,,0.3379768739687279,0.7077519570011646
-150,z,0,0,0,0,44,3,179,3,,,,,453.20669420901686,454.1940150000155,454.1940150000155,454.1940150000155,454.1940150000155,454.2028898339486,455.19865849998314,455.19865849998314,,z,1,0.31386533193290234,None,tutorial4,001,2023-10-17_19h49.07.799,tutorial4,2023.1.3,None,,0.31386533193290234,0.7351095400517806,,,,,,,,,,0.31386533193290234,0.7351095400517806
-50,x,0,0,0,0,45,0,180,0,,,,,455.5231535839848,456.51091379194986,456.51091379194986,456.51091379194986,456.51091379194986,456.5198183750035,457.50796354201157,457.50796354201157,,x,1,0.3458620400633663,None,tutorial4,001,2023-10-17_19h49.07.799,tutorial4,2023.1.3,None,,0.3458620400633663,0.48566899891011417,,,,,,,,,,0.3458620400633663,0.48566899891011417
150,v,0,0,0,0,45,1,181,1,,,,,457.8654805419501,458.85968433402013,458.85968433402013,458.85968433402013,458.85968433402013,458.85968433402013,459.85824804205913,459.85824804205913,460.85642700002063,v,1,0.9854835820151493,None,tutorial4,001,2023-10-17_19h49.07.799,tutorial4,2023.1.3,None,,0.9854835820151493,0.4590673738857731,,,,,,,,,,0.9854835820151493,0.4590673738857731
50,c,0,0,0,0,45,2,182,2,,,,,460.85642700002063,461.84405916696414,461.84405916696414,461.84405916696414,461.84405916696414,461.85392733395565,462.8487725419691,462.8487725419691,,c,1,0.39135637402068824,None,tutorial4,001,2023-10-17_19h49.07.799,tutorial4,2023.1.3,None,,0.39135637402068824,0.547454082,,,,,,,,,,0.39135637402068824,0.547454082
-150,z,0,0,0,0,45,3,183,3,,,,,463.25637049996294,464.23970537504647,464.23970537504647,464.23970537504647,464.23970537504647,464.24875191703904,465.24001412501093,465.24001412501093,,z,1,0.39509703998919576,None,tutorial4,001,2023-10-17_19h49.07.799,tutorial4,2023.1.3,None,,0.39509703998919576,0.521960165,,,,,,,,,,0.39509703998919576,0.521960165
-50,x,0,0,0,0,46,0,184,0,,,,,465.649014,466.6337123339763,466.6337123339763,466.6337123339763,466.6337123339763,466.6436565000331,467.6327287090244,467.6327287090244,,x,1,0.4373161239782348,None,tutorial4,001,2023-10-17_19h49.07.799,tutorial4,2023.1.3,None,,0.4373161239782348,0.4931592489592731,,,,,,,,,,0.4373161239782348,0.4931592489592731
150,v,0,0,0,0,46,1,185,1,,,,,468.0823477919912,469.07650570897385,469.07650570897385,469.07650570897385,469.07650570897385,469.07650570897385,470.0655727919657,470.0655727919657,,v,1,0.4519242480164394,None,tutorial4,001,2023-10-17_19h49.07.799,tutorial4,2023.1.3,None,,0.4519242480164394,0.34337187407072634,,,,,,,,,,0.4519242480164394,0.34337187407072634
50,c,0,0,0,0,46,2,186,2,,,,,470.53215454204474,471.53311608405784,471.53311608405784,471.53311608405784,471.53311608405784,471.55001137498766,472.5155328749679,472.5155328749679,,c,1,0.28092083195224404,None,tutorial4,001,2023-10-17_19h49.07.799,tutorial4,2023.1.3,None,,0.28092083195224404,0.5625991648994386,,,,,,,,,,0.28092083195224404,0.5625991648994386
-150,z,0,0,0,0,46,3,187,3,,,,,472.8067247499712,473.7949709170498,473.7949709170498,473.7949709170498,473.7949709170498,473.80402416700963,474.79065854195505,474.79065854195505,,z,1,0.34302895690780133,None,tutorial4,001,2023-10-17_19h49.07.799,tutorial4,2023.1.3,None,,0.34302895690780133,0.5444092069519684,,,,,,,,,,0.34302895690780133,0.5444092069519684
-50,x,0,0,0,0,47,0,188,0,,,,,475.14905166695826,476.14963208395056,476.14963208395056,476.14963208395056,476.14963208395056,476.1667440419551,477.13226895895787,477.13226895895787,,x,1,0.4478061660192907,None,tutorial4,001,2023-10-17_19h49.07.799,tutorial4,2023.1.3,None,,0.4478061660192907,1.0240986649878323,,,,,,,,,,0.4478061660192907,1.0240986649878323
150,v,0,0,0,0,47,1,189,1,,,,,477.59022574999835,478.57764404197223,478.57764404197223,478.57764404197223,478.57764404197223,478.58691562502645,479.57457841699943,479.57457841699943,,v,1,0.7380729150027037,None,tutorial4,001,2023-10-17_19h49.07.799,tutorial4,2023.1.3,None,,0.7380729150027037,0.6181692900136113,,,,,,,,,,0.7380729150027037,0.6181692900136113
50,c,0,0,0,0,47,2,190,2,,,,,480.3235819590045,481.3111881669611,481.3111881669611,481.3111881669611,481.3111881669611,481.3202140840003,482.3069664170034,482.3069664170034,,c,1,0.38591324794106185,None,tutorial4,001,2023-10-17_19h49.07.799,tutorial4,2023.1.3,None,,0.38591324794106185,0.5880480400519446,,,,,,,,,,0.38591324794106185,0.5880480400519446
-150,z,0,0,0,0,47,3,191,3,,,,,482.70685983402655,483.69486204197165,483.69486204197165,483.69486204197165,483.69486204197165,483.7038274,484.6906623339746,484.6906623339746,,z,1,0.3004307069350034,None,tutorial4,001,2023-10-17_19h49.07.799,tutorial4,2023.1.3,None,,0.3004307069350034,0.4260904159164056,,,,,,,,,,0.3004307069350034,0.4260904159164056
-50,x,0,0,0,0,48,0,192,0,,,,,485.00708120898344,485.9945282919798,485.9945282919798,485.9945282919798,485.9945282919798,486.00391362502705,486.9908055419801,486.9908055419801,,x,1,0.37214041501283646,None,tutorial4,001,2023-10-17_19h49.07.799,tutorial4,2023.1.3,None,,0.37214041501283646,0.7679433319717646,,,,,,,,,,0.37214041501283646,0.7679433319717646
150,v,0,0,0,0,48,1,193,1,,,,,487.3735945840599,488.3610548339784,488.3610548339784,488.3610548339784,488.3610548339784,488.3700129999779,489.35753129201476,489.35753129201476,490.35614095896017,v,1,1.2551819159416482,None,tutorial4,001,2023-10-17_19h49.07.799,tutorial4,2023.1.3,None,,1.2551819159416482,0.7954044979996979,,,,,,,,,,1.2551819159416482,0.7954044979996979
50,c,0,0,0,0,48,2,194,2,,,,,490.62473091704305,491.61157904204447,491.61157904204447,491.61157904204447,491.61157904204447,491.6204562,492.61576362501364,492.61576362501364,,c,1,0.5235819149529561,None,tutorial4,001,2023-10-17_19h49.07.799,tutorial4,2023.1.3,None,,0.5235819149529561,0.4887804570607841,,,,,,,,,,0.5235819149529561,0.4887804570607841
-150,z,0,0,0,0,48,3,195,3,,,,,493.1490892500151,494.1441444590455,494.1441444590455,494.1441444590455,494.1441444590455,494.1441444590455,495.13259491696954,495.13259491696954,,z,1,0.41185278992634267,None,tutorial4,001,2023-10-17_19h49.07.799,tutorial4,2023.1.3,None,,0.41185278992634267,0.48438658204395324,,,,,,,,,,0.41185278992634267,0.48438658204395324
-50,x,0,0,0,0,49,0,196,0,,,,,495.5570140420459,496.5450352090411,496.5450352090411,496.5450352090411,496.5450352090411,496.55389700003434,497.5417740419507,497.5417740419507,,x,1,0.4946674989769235,None,tutorial4,001,2023-10-17_19h49.07.799,tutorial4,2023.1.3,None,,0.4946674989769235,0.6028374569723383,,,,,,,,,,0.4946674989769235,0.6028374569723383
150,v,0,0,0,0,49,1,197,1,,,,,498.04953758395277,499.03403087495826,499.03403087495826,499.03403087495826,499.03403087495826,499.0438168339897,500.03251079202164,500.03251079202164,,v,1,0.3418995819520205,None,tutorial4,001,2023-10-17_19h49.07.799,tutorial4,2023.1.3,None,,0.3418995819520205,0.4964244159637019,,,,,,,,,,0.3418995819520205,0.4964244159637019
50,c,0,0,0,0,49,2,198,2,,,,,500.3900980419712,501.3777451249771,501.3777451249771,501.3777451249771,501.3777451249771,501.3867147919955,502.37408954196144,502.37408954196144,,c,1,0.3536750409984961,None,tutorial4,001,2023-10-17_19h49.07.799,tutorial4,2023.1.3,None,,0.3536750409984961,0.4178339570062235,,,,,,,,,,0.3536750409984961,0.4178339570062235
-150,z,0,0,0,0,49,3,199,3,,,,,502.7404211249668,503.72794979205355,503.72794979205355,503.72794979205355,503.72794979205355,503.7371271670563,504.72438841697294,504.72438841697294,,z,1,0.49020583205856383,None,tutorial4,001,2023-10-17_19h49.07.799,tutorial4,2023.1.3,None,,0.49020583205856383,,,,,,,,,,,,
-50,x,0,0,0,0,,,,,0,0,0,0,505.23784629197326,506.2117720419774,506.2117720419774,506.2117720419774,506.2117720419774,506.23277045902796,507.2159271669807,507.2159271669807,,x,1,0.3352399569703266,None,tutorial4,001,2023-10-17_19h49.07.799,tutorial4,2023.1.3,None,,,,,,,,,,,,,,
150,v,0,0,0,0,,,,,0,1,1,1,507.5659890839597,508.56021250004414,508.56021250004414,508.56021250004414,508.56021250004414,508.56021250004414,509.54928908403963,509.54928908403963,,v,1,0.7192976649384946,None,tutorial4,001,2023-10-17_19h49.07.799,tutorial4,2023.1.3,None,,,,,,,,,,,,,,
50,c,0,0,0,0,,,,,0,2,2,2,510.2828522090567,511.2670060839737,511.2670060839737,511.2670060839737,511.2670060839737,511.27662629203405,512.2660399170127,512.2660399170127,,c,1,0.2784877070225775,None,tutorial4,001,2023-10-17_19h49.07.799,tutorial4,2023.1.3,None,,,,,,,,,,,,,,
-50,x,0,0,0,0,,,,,0,3,3,0,512.5571163339773,513.5443098749965,513.5443098749965,513.5443098749965,513.5443098749965,513.554082,514.5497131670127,514.5497131670127,,x,1,0.6182817069347948,None,tutorial4,001,2023-10-17_19h49.07.799,tutorial4,2023.1.3,None,,,,,,,,,,,,,,
-50,x,0,0,0,0,,,,,1,0,4,0,515.1828929589828,516.1834740840131,516.1834740840131,516.1834740840131,516.1834740840131,516.2005519999657,517.1660338749643,517.1660338749643,,x,1,0.5874442899366841,None,tutorial4,001,2023-10-17_19h49.07.799,tutorial4,2023.1.3,None,,,,,,,,,,,,,,
-150,z,0,0,0,0,,,,,1,1,5,3,517.7661954170326,518.7511795000173,518.7511795000173,518.7511795000173,518.7511795000173,518.7606709169922,519.7579847089946,519.7579847089946,,z,1,0.6939217899926007,None,tutorial4,001,2023-10-17_19h49.07.799,tutorial4,2023.1.3,None,,,,,,,,,,,,,,
-150,z,0,0,0,0,,,,,1,2,6,3,520.4662192090182,521.4604259170592,521.4604259170592,521.4604259170592,521.4604259170592,521.4604259170592,522.4494480419671,522.4494480419671,,z,1,0.7390499989269301,None,tutorial4,001,2023-10-17_19h49.07.799,tutorial4,2023.1.3,None,,,,,,,,,,,,,,
-150,z,0,0,0,0,,,,,1,3,7,3,523.1994587089866,524.1940064999508,524.1940064999508,524.1940064999508,524.1940064999508,524.1940064999508,525.1828374,525.1828374,,z,1,0.42991029005497694,None,tutorial4,001,2023-10-17_19h49.07.799,tutorial4,2023.1.3,None,,,,,,,,,,,,,,
-50,x,0,0,0,0,,,,,2,1,9,0,528.0757240420207,529.0623069170397,529.0623069170397,529.0623069170397,529.0623069170397,529.0711361,530.0662727500312,530.0662727500312,,x,1,0.754602499,None,tutorial4,001,2023-10-17_19h49.07.799,tutorial4,2023.1.3,None,,,,,,,,,,,,,,
50,c,0,0,0,0,,,,,2,2,10,2,530.8330474590184,531.8177406250034,531.8177406250034,531.8177406250034,531.8177406250034,531.8274211670505,532.8162295420188,532.8162295420188,,c,1,0.9208754979772493,None,tutorial4,001,2023-10-17_19h49.07.799,tutorial4,2023.1.3,None,,,,,,,,,,,,,,
-150,z,0,0,0,0,,,,,2,3,11,3,533.7498874169542,534.7379440000514,534.7379440000514,534.7379440000514,534.7379440000514,534.7499922499992,535.7329875420546,535.7329875420546,,z,1,0.7643215819261968,None,tutorial4,001,2023-10-17_19h49.07.799,tutorial4,2023.1.3,None,,,,,,,,,,,,,,
150,v,0,0,0,0,,,,,3,0,12,1,536.5074014170095,537.4953381669475,537.4953381669475,537.4953381669475,537.4953381669475,537.5045996250119,538.4920914169634,538.4920914169634,,v,1,0.7872333319392055,None,tutorial4,001,2023-10-17_19h49.07.799,tutorial4,2023.1.3,None,,,,,,,,,,,,,,
-150,z,0,0,0,0,,,,,3,1,13,3,539.2907075,540.2785395840183,540.2785395840183,540.2785395840183,540.2785395840183,540.2874169589486,541.2830446669832,541.2830446669832,,z,1,0.6183600819204003,None,tutorial4,001,2023-10-17_19h49.07.799,tutorial4,2023.1.3,None,,,,,,,,,,,,,,
150,v,0,0,0,0,,,,,3,2,14,1,541.9164905840298,542.9101922089467,542.9101922089467,542.9101922089467,542.9101922089467,542.9101922089467,543.8998000420397,543.8998000420397,,v,1,0.8749062489951029,None,tutorial4,001,2023-10-17_19h49.07.799,tutorial4,2023.1.3,None,,,,,,,,,,,,,,
150,v,0,0,0,0,,,,,3,3,15,1,544.7908948339755,545.7790731670102,545.7790731670102,545.7790731670102,545.7790731670102,545.7880171670113,546.7748214,546.7748214,,v,1,0.5221877478761598,None,tutorial4,001,2023-10-17_19h49.07.799,tutorial4,2023.1.3,None,,,,,,,,,,,,,,
-50,x,0,0,0,0,,,,,4,0,16,0,547.3076974999858,548.2946965419687,548.2946965419687,548.2946965419687,548.2946965419687,548.3043045,549.3009252089541,549.3009252089541,,x,1,0.8913013320416212,None,tutorial4,001,2023-10-17_19h49.07.799,tutorial4,2023.1.3,None,,,,,,,,,,,,,,
-150,z,0,0,0,0,,,,,4,1,17,3,550.2081140839728,551.1950850000139,551.1950850000139,551.1950850000139,551.1950850000139,551.2046537089627,552.1923045420554,552.1923045420554,,z,1,0.6098294149851426,None,tutorial4,001,2023-10-17_19h49.07.799,tutorial4,2023.1.3,None,,,,,,,,,,,,,,
50,c,0,0,0,0,,,,,4,2,18,2,552.8166069169529,553.8109482920263,553.8109482920263,553.8109482920263,553.8109482920263,553.8109482920263,554.7998059169622,554.7998059169622,,c,1,0.8371819159947336,None,tutorial4,001,2023-10-17_19h49.07.799,tutorial4,2023.1.3,None,,,,,,,,,,,,,,
-50,x,0,0,0,0,,,,,4,3,19,0,555.6499797919532,556.6346076249611,556.6346076249611,556.6346076249611,556.6346076249611,556.6443844169844,557.6332454590593,557.6332454590593,,x,1,0.7049352069152519,None,tutorial4,001,2023-10-17_19h49.07.799,tutorial4,2023.1.3,None,,,,,,,,,,,,,,
-50,x,0,0,0,0,,,,,5,0,20,0,558.3499955839943,559.3438584590331,559.3438584590331,559.3438584590331,559.3438584590331,559.3438584590331,560.3333042500308,560.3333042500308,,x,1,0.6231817899970338,None,tutorial4,001,2023-10-17_19h49.07.799,tutorial4,2023.1.3,None,,,,,,,,,,,,,,
150,v,0,0,0,0,,,,,5,1,21,1,560.9667407920351,561.9516036669957,561.9516036669957,561.9516036669957,561.9516036669957,561.9608816249529,562.9498759170529,562.9498759170529,,v,1,0.7362220399081707,None,tutorial4,001,2023-10-17_19h49.07.799,tutorial4,2023.1.3,None,,,,,,,,,,,,,,
-150,z,0,0,0,0,,,,,5,2,22,3,563.7002005840186,564.6936612919671,564.6936612919671,564.6936612919671,564.6936612919671,564.6936612919671,565.6832151670242,565.6832151670242,,z,1,0.6050891230115667,None,tutorial4,001,2023-10-17_19h49.07.799,tutorial4,2023.1.3,None,,,,,,,,,,,,,,
150,v,0,0,0,0,,,,,5,3,23,1,566.3001186,567.2937815419864,567.2937815419864,567.2937815419864,567.2937815419864,567.2937815419864,568.2928348750575,568.2928348750575,,v,1,0.7166417900007218,None,tutorial4,001,2023-10-17_19h49.07.799,tutorial4,2023.1.3,None,,,,,,,,,,,,,,
50,c,0,0,0,0,,,,,6,0,24,2,569.0243322920287,570.0115521670086,570.0115521670086,570.0115521670086,570.0115521670086,570.0213439590298,571.0093059589854,571.0093059589854,,c,1,0.675696415,None,tutorial4,001,2023-10-17_19h49.07.799,tutorial4,2023.1.3,None,,,,,,,,,,,,,,
50,c,0,0,0,0,,,,,6,1,25,2,571.7002464999678,572.6850121669704,572.6850121669704,572.6850121669704,572.6850121669704,572.6947830839781,573.6920138749992,573.6920138749992,,c,1,0.4620521659962833,None,tutorial4,001,2023-10-17_19h49.07.799,tutorial4,2023.1.3,None,,,,,,,,,,,,,,
50,c,0,0,0,0,,,,,6,2,26,2,574.1669574170373,575.1618501669727,575.1618501669727,575.1618501669727,575.1618501669727,575.1618501669727,576.1501005419996,576.1501005419996,,c,1,0.4352162069408223,None,tutorial4,001,2023-10-17_19h49.07.799,tutorial4,2023.1.3,None,,,,,,,,,,,,,,
-50,x,0,0,0,0,,,,,6,3,27,0,576.6003049589926,577.6008032090031,577.6008032090031,577.6008032090031,577.6008032090031,577.6174095000606,578.5920779999578,578.5920779999578,,x,1,0.5678904990199953,None,tutorial4,001,2023-10-17_19h49.07.799,tutorial4,2023.1.3,None,,,,,,,,,,,,,,
-150,z,0,0,0,0,,,,,7,0,28,3,579.1747664170107,580.1617147090146,580.1617147090146,580.1617147090146,580.1617147090146,580.1715316670015,581.1584528749809,581.1584528749809,,z,1,0.3026060409611091,None,tutorial4,001,2023-10-17_19h49.07.799,tutorial4,2023.1.3,None,,,,,,,,,,,,,,
150,v,0,0,0,0,,,,,7,1,29,1,581.4748340420192,582.4628481250256,582.4628481250256,582.4628481250256,582.4628481250256,582.4717253750423,583.4579478750238,583.4579478750238,,v,1,0.40502841502893716,None,tutorial4,001,2023-10-17_19h49.07.799,tutorial4,2023.1.3,None,,,,,,,,,,,,,,
150,v,0,0,0,0,,,,,7,2,30,1,583.8746152919484,584.8630005839514,584.8630005839514,584.8630005839514,584.8630005839514,584.8719740420347,585.8668382,585.8668382,,v,1,0.7685219990089536,None,tutorial4,001,2023-10-17_19h49.07.799,tutorial4,2023.1.3,None,,,,,,,,,,,,,,
-50,x,0,0,0,0,,,,,7,3,31,0,586.6503890840104,587.6350894169882,587.6350894169882,587.6350894169882,587.6350894169882,587.6449193,588.6335569,588.6335569,,x,1,0.7972699148813263,None,tutorial4,001,2023-10-17_19h49.07.799,tutorial4,2023.1.3,None,,,,,,,,,,,,,,
50,c,0,0,0,0,,,,,8,0,32,2,589.4414963340387,590.4289397499524,590.4289397499524,590.4289397499524,590.4289397499524,590.4383462090045,591.4250622090185,591.4250622090185,,c,1,0.30534133198671043,None,tutorial4,001,2023-10-17_19h49.07.799,tutorial4,2023.1.3,None,,,,,,,,,,,,,,
-50,x,0,0,0,0,,,,,8,1,33,0,591.7413420840167,592.7289547499968,592.7289547499968,592.7289547499968,592.7289547499968,592.7382878,593.7256184170255,593.7256184170255,,x,1,0.6220805819611996,None,tutorial4,001,2023-10-17_19h49.07.799,tutorial4,2023.1.3,None,,,,,,,,,,,,,,
50,c,0,0,0,0,,,,,8,2,34,2,594.3581418340327,595.3463965000119,595.3463965000119,595.3463965000119,595.3463965000119,595.3553699170006,596.3421913,596.3421913,,c,1,0.6958679570816457,None,tutorial4,001,2023-10-17_19h49.07.799,tutorial4,2023.1.3,None,,,,,,,,,,,,,,
50,c,0,0,0,0,,,,,8,3,35,2,597.0505250840215,598.0453535419656,598.0453535419656,598.0453535419656,598.0453535419656,598.0453535419656,599.0337119,599.0337119,,c,1,0.4871887069894001,None,tutorial4,001,2023-10-17_19h49.07.799,tutorial4,2023.1.3,None,,,,,,,,,,,,,,
50,c,0,0,0,0,,,,,9,0,36,2,599.5338777919533,600.5183872,600.5183872,600.5183872,600.5183872,600.5279987499816,601.5170497499639,601.5170497499639,,c,1,0.325665332,None,tutorial4,001,2023-10-17_19h49.07.799,tutorial4,2023.1.3,None,,,,,,,,,,,,,,
50,c,0,0,0,0,,,,,9,1,37,2,601.8583496670472,602.8449070840143,602.8449070840143,602.8449070840143,602.8449070840143,602.8546242089942,603.8503207500326,603.8503207500326,,c,1,0.4325057070236653,None,tutorial4,001,2023-10-17_19h49.07.799,tutorial4,2023.1.3,None,,,,,,,,,,,,,,
-50,x,0,0,0,0,,,,,9,2,38,0,604.2922109590145,605.2790337919723,605.2790337919723,605.2790337919723,605.2790337919723,605.2878868340049,606.2754405000014,606.2754405000014,,x,1,0.726718457,None,tutorial4,001,2023-10-17_19h49.07.799,tutorial4,2023.1.3,None,,,,,,,,,,,,,,
-150,z,0,0,0,0,,,,,9,3,39,3,607.0173702919856,608.0020559170516,608.0020559170516,608.0020559170516,608.0020559170516,608.0120459999889,609.0003912920365,609.0003912920365,,z,1,0.4364701649174094,None,tutorial4,001,2023-10-17_19h49.07.799,tutorial4,2023.1.3,None,,,,,,,,,,,,,,
50,c,0,0,0,0,,,,,10,0,40,2,609.4506121,610.4353407920571,610.4353407920571,610.4353407920571,610.4353407920571,610.4451442,611.4334941,611.4334941,,c,1,0.3680378319695592,None,tutorial4,001,2023-10-17_19h49.07.799,tutorial4,2023.1.3,None,,,,,,,,,,,,,,
50,c,0,0,0,0,,,,,10,1,41,2,611.8170684169745,612.8113172500161,612.8113172500161,612.8113172500161,612.8113172500161,612.8113172500161,613.8096817,613.8096817,,c,1,0.5032728740479797,None,tutorial4,001,2023-10-17_19h49.07.799,tutorial4,2023.1.3,None,,,,,,,,,,,,,,
150,v,0,0,0,0,,,,,10,2,42,1,614.3248427090002,615.3130584170576,615.3130584170576,615.3130584170576,615.3130584170576,615.3221024170052,616.3093891249737,616.3093891249737,,v,1,0.4936829989310354,None,tutorial4,001,2023-10-17_19h49.07.799,tutorial4,2023.1.3,None,,,,,,,,,,,,,,
50,c,0,0,0,0,,,,,10,3,43,2,616.8173518750118,617.8179477920057,617.8179477920057,617.8179477920057,617.8179477920057,617.8350172500359,618.8005439590197,618.8005439590197,,c,1,0.3143381649861112,None,tutorial4,001,2023-10-17_19h49.07.799,tutorial4,2023.1.3,None,,,,,,,,,,,,,,
-50,x,0,0,0,0,,,,,11,0,44,0,619.1252859589877,620.1126731,620.1126731,620.1126731,620.1126731,620.1220142920502,621.1172884999542,621.1172884999542,,x,1,0.41861783200874925,None,tutorial4,001,2023-10-17_19h49.07.799,tutorial4,2023.1.3,None,,,,,,,,,,,,,,
-150,z,0,0,0,0,,,,,11,1,45,3,621.5508156249998,622.5512989170384,622.5512989170384,622.5512989170384,622.5512989170384,622.5684917089529,623.5338008749532,623.5338008749532,,z,1,0.5808084150776267,None,tutorial4,001,2023-10-17_19h49.07.799,tutorial4,2023.1.3,None,,,,,,,,,,,,,,
150,v,0,0,0,0,,,,,11,2,46,1,624.1250680839876,625.1125640840037,625.1125640840037,625.1125640840037,625.1125640840037,625.1222529590596,626.1088020000607,626.1088020000607,,v,1,0.8190007909433916,None,tutorial4,001,2023-10-17_19h49.07.799,tutorial4,2023.1.3,None,,,,,,,,,,,,,,
50,c,0,0,0,0,,,,,11,3,47,2,626.9416267,627.9290582500398,627.9290582500398,627.9290582500398,627.9290582500398,627.9390967,628.9263600839768,628.9263600839768,,c,1,0.5054901239927858,None,tutorial4,001,2023-10-17_19h49.07.799,tutorial4,2023.1.3,None,,,,,,,,,,,,,,
150,v,0,0,0,0,,,,,12,0,48,1,629.4404236250557,630.4299099170603,630.4299099170603,630.4299099170603,630.4299099170603,630.4386875840137,631.4266875840258,631.4266875840258,,v,1,0.7175502069294453,None,tutorial4,001,2023-10-17_19h49.07.799,tutorial4,2023.1.3,None,,,,,,,,,,,,,,
-50,x,0,0,0,0,,,,,12,1,49,0,632.1586838340154,633.1457568339538,633.1457568339538,633.1457568339538,633.1457568339538,633.1552126250463,634.1506826670375,634.1506826670375,,x,1,0.7692412489559501,None,tutorial4,001,2023-10-17_19h49.07.799,tutorial4,2023.1.3,None,,,,,,,,,,,,,,
-150,z,0,0,0,0,,,,,12,2,50,3,634.9342523750383,635.9183084,635.9183084,635.9183084,635.9183084,635.9280283340486,636.9174202920403,636.9174202920403,,z,1,0.4523558729561046,None,tutorial4,001,2023-10-17_19h49.07.799,tutorial4,2023.1.3,None,,,,,,,,,,,,,,
50,c,0,0,0,0,,,,,12,3,51,2,637.3842877499992,638.3689670419553,638.3689670419553,638.3689670419553,638.3689670419553,638.3787409169599,639.3674914169824,639.3674914169824,,c,1,0.4685059569310397,None,tutorial4,001,2023-10-17_19h49.07.799,tutorial4,2023.1.3,None,,,,,,,,,,,,,,
150,v,0,0,0,0,,,,,13,0,52,1,639.8509275419638,640.8515194590436,640.8515194590436,640.8515194590436,640.8515194590436,640.8686399590224,641.8340763340238,641.8340763340238,,v,1,0.5758355400757864,None,tutorial4,001,2023-10-17_19h49.07.799,tutorial4,2023.1.3,None,,,,,,,,,,,,,,
50,c,0,0,0,0,,,,,13,1,53,2,642.4253618340008,643.4127727090381,643.4127727090381,643.4127727090381,643.4127727090381,643.4215898340335,644.4103208750021,644.4103208750021,,c,1,0.40852166595868766,None,tutorial4,001,2023-10-17_19h49.07.799,tutorial4,2023.1.3,None,,,,,,,,,,,,,,
-50,x,0,0,0,0,,,,,13,2,54,0,644.8343936670572,645.8349908340024,645.8349908340024,645.8349908340024,645.8349908340024,645.8521141250385,646.8175786669599,646.8175786669599,,x,1,0.4257957899244502,None,tutorial4,001,2023-10-17_19h49.07.799,tutorial4,2023.1.3,None,,,,,,,,,,,,,,
-150,z,0,0,0,0,,,,,13,3,55,3,647.2588860839605,648.2466514999978,648.2466514999978,648.2466514999978,648.2466514999978,648.2556967,649.2513505839743,649.2513505839743,,z,1,0.2898699149955064,None,tutorial4,001,2023-10-17_19h49.07.799,tutorial4,2023.1.3,None,,,,,,,,,,,,,,
50,c,0,0,0,0,,,,,14,0,56,2,649.5509746250464,650.5516649170313,650.5516649170313,650.5516649170313,650.5516649170313,650.5682506,651.5431055000518,651.5431055000518,,c,1,0.5266534979455173,None,tutorial4,001,2023-10-17_19h49.07.799,tutorial4,2023.1.3,None,,,,,,,,,,,,,,
150,v,0,0,0,0,,,,,14,1,57,1,652.0844528339803,653.069169,653.069169,653.069169,653.069169,653.0789292920381,654.0768053750508,654.0768053750508,,v,1,0.3763339569559321,None,tutorial4,001,2023-10-17_19h49.07.799,tutorial4,2023.1.3,None,,,,,,,,,,,,,,
-50,x,0,0,0,0,,,,,14,2,58,0,654.4677487,655.4548905839911,655.4548905839911,655.4548905839911,655.4548905839911,655.4687203,656.4511578340316,656.4511578340316,,x,1,0.5020472479518503,None,tutorial4,001,2023-10-17_19h49.07.799,tutorial4,2023.1.3,None,,,,,,,,,,,,,,
150,v,0,0,0,0,,,,,14,3,59,1,656.9677397500491,657.9520609589526,657.9520609589526,657.9520609589526,657.9520609589526,657.9619019,658.9509735,658.9509735,,v,1,0.7276032069930807,None,tutorial4,001,2023-10-17_19h49.07.799,tutorial4,2023.1.3,None,,,,,,,,,,,,,,
-150,z,0,0,0,0,,,,,15,0,60,3,659.6921171670547,660.6800880839583,660.6800880839583,660.6800880839583,660.6800880839583,660.6889209999936,661.6851552500157,661.6851552500157,,z,1,0.6126952479826286,None,tutorial4,001,2023-10-17_19h49.07.799,tutorial4,2023.1.3,None,,,,,,,,,,,,,,
50,c,0,0,0,0,,,,,15,1,61,2,662.3087382500526,663.2968579590088,663.2968579590088,663.2968579590088,663.2968579590088,663.3058949590195,664.3009969999548,664.3009969999548,,c,1,0.6517751649953425,None,tutorial4,001,2023-10-17_19h49.07.799,tutorial4,2023.1.3,None,,,,,,,,,,,,,,
50,c,0,0,0,0,,,,,15,2,62,2,664.9678993750131,665.9623535840074,665.9623535840074,665.9623535840074,665.9623535840074,665.9623535840074,666.9512136670528,666.9512136670528,,c,1,0.46800366591196507,None,tutorial4,001,2023-10-17_19h49.07.799,tutorial4,2023.1.3,None,,,,,,,,,,,,,,
150,v,0,0,0,0,,,,,15,3,63,1,667.4347025420284,668.4287133340258,668.4287133340258,668.4287133340258,668.4287133340258,668.4287133340258,669.4256811670493,669.4256811670493,,v,1,0.48429429007228464,None,tutorial4,001,2023-10-17_19h49.07.799,tutorial4,2023.1.3,None,,,,,,,,,,,,,,
-50,x,0,0,0,0,,,,,16,0,64,0,669.9255689999554,670.9127995000454,670.9127995000454,670.9127995000454,670.9127995000454,670.9226064,671.9182692919858,671.9182692919858,,x,1,0.7198813740396872,None,tutorial4,001,2023-10-17_19h49.07.799,tutorial4,2023.1.3,None,,,,,,,,,,,,,,
-50,x,0,0,0,0,,,,,16,1,65,0,672.6510633,673.6461033750093,673.6461033750093,673.6461033750093,673.6461033750093,673.6461033750093,674.6345372090582,674.6345372090582,,x,1,0.7405368729960173,None,tutorial4,001,2023-10-17_19h49.07.799,tutorial4,2023.1.3,None,,,,,,,,,,,,,,
150,v,0,0,0,0,,,,,16,2,66,1,675.3927071669605,676.3851769999601,676.3851769999601,676.3851769999601,676.3851769999601,676.3948172089877,677.3850839589722,677.3850839589722,,v,1,0.4552883730502799,None,tutorial4,001,2023-10-17_19h49.07.799,tutorial4,2023.1.3,None,,,,,,,,,,,,,,
50,c,0,0,0,0,,,,,16,3,67,2,677.8514892499661,678.835869,678.835869,678.835869,678.835869,678.8455674999859,679.834469,679.834469,,c,1,0.4764109159586951,None,tutorial4,001,2023-10-17_19h49.07.799,tutorial4,2023.1.3,None,,,,,,,,,,,,,,
-150,z,0,0,0,0,,,,,17,0,68,3,680.3256664170185,681.3129036249593,681.3129036249593,681.3129036249593,681.3129036249593,681.3228732,682.3180450840155,682.3180450840155,,z,1,0.6213647900149226,None,tutorial4,001,2023-10-17_19h49.07.799,tutorial4,2023.1.3,None,,,,,,,,,,,,,,
50,c,0,0,0,0,,,,,17,1,69,2,682.9512862500269,683.9455225840211,683.9455225840211,683.9455225840211,683.9455225840211,683.9455225840211,684.9346192500088,684.9346192500088,,c,1,0.761760707,None,tutorial4,001,2023-10-17_19h49.07.799,tutorial4,2023.1.3,None,,,,,,,,,,,,,,
150,v,0,0,0,0,,,,,17,2,70,1,685.7086547500221,686.6971776670543,686.6971776670543,686.6971776670543,686.6971776670543,686.7061921,687.6933739170199,687.6933739170199,,v,1,0.452243791,None,tutorial4,001,2023-10-17_19h49.07.799,tutorial4,2023.1.3,None,,,,,,,,,,,,,,
50,c,0,0,0,0,,,,,17,3,71,2,688.1592332499567,689.1473807089496,689.1473807089496,689.1473807089496,689.1473807089496,689.1562682919903,690.1438480840297,690.1438480840297,,c,1,0.6935279569588602,None,tutorial4,001,2023-10-17_19h49.07.799,tutorial4,2023.1.3,None,,,,,,,,,,,,,,
-150,z,0,0,0,0,,,,,18,0,72,3,690.8514439590508,691.852144,691.852144,691.852144,691.852144,691.8686634999467,692.8346319589764,692.8346319589764,,z,1,0.6486714159836993,None,tutorial4,001,2023-10-17_19h49.07.799,tutorial4,2023.1.3,None,,,,,,,,,,,,,,
150,v,0,0,0,0,,,,,18,1,73,1,693.4911337919766,694.4797949170461,694.4797949170461,694.4797949170461,694.4797949170461,694.4889893,695.4766336670145,695.4766336670145,696.4746711249463,v,1,1.2701622489839792,None,tutorial4,001,2023-10-17_19h49.07.799,tutorial4,2023.1.3,None,,,,,,,,,,,,,,
-150,z,0,0,0,0,,,,,18,2,74,3,696.7606148340274,697.7516745419707,697.7516745419707,697.7516745419707,697.7516745419707,697.7613291250309,698.7435265840031,698.7435265840031,,z,1,0.8130074160872027,None,tutorial4,001,2023-10-17_19h49.07.799,tutorial4,2023.1.3,None,,,,,,,,,,,,,,
150,v,0,0,0,0,,,,,18,3,75,1,699.5680732,700.5631746669533,700.5631746669533,700.5631746669533,700.5631746669533,700.5631746669533,701.5515734170331,701.5515734170331,,v,1,0.5600530820665881,None,tutorial4,001,2023-10-17_19h49.07.799,tutorial4,2023.1.3,None,,,,,,,,,,,,,,
-150,z,0,0,0,0,,,,,19,0,76,3,702.1261857090285,703.1130116670392,703.1130116670392,703.1130116670392,703.1130116670392,703.1230084589915,704.1193039170466,704.1193039170466,,z,1,0.608235665,None,tutorial4,001,2023-10-17_19h49.07.799,tutorial4,2023.1.3,None,,,,,,,,,,,,,,
150,v,0,0,0,0,,,,,19,1,77,1,704.7428555,705.7301243339898,705.7301243339898,705.7301243339898,705.7301243339898,705.7398462089477,706.7273916,706.7273916,,v,1,0.4381499569863081,None,tutorial4,001,2023-10-17_19h49.07.799,tutorial4,2023.1.3,None,,,,,,,,,,,,,,
-50,x,0,0,0,0,,,,,19,2,78,0,707.1760162,708.1633928749943,708.1633928749943,708.1633928749943,708.1633928749943,708.1729230839992,709.1597230839543,709.1597230839543,,x,1,0.6858943739207461,None,tutorial4,001,2023-10-17_19h49.07.799,tutorial4,2023.1.3,None,,,,,,,,,,,,,,
150,v,0,0,0,0,,,,,19,3,79,1,709.8594346250175,710.8469229999464,710.8469229999464,710.8469229999464,710.8469229999464,710.8562766249524,711.8431378339883,711.8431378339883,,v,1,0.35292720689903945,None,tutorial4,001,2023-10-17_19h49.07.799,tutorial4,2023.1.3,None,,,,,,,,,,,,,,
-50,x,0,0,0,0,,,,,20,0,80,0,712.2093375419499,713.1972359,713.1972359,713.1972359,713.1972359,713.2060736250132,714.1941587,714.1941587,,x,1,0.5150860409485176,None,tutorial4,001,2023-10-17_19h49.07.799,tutorial4,2023.1.3,None,,,,,,,,,,,,,,
150,v,0,0,0,0,,,,,20,1,81,1,714.7260180839803,715.7141351669561,715.7141351669561,715.7141351669561,715.7141351669561,715.7229829,716.7101380840177,716.7101380840177,,v,1,0.3831054159672931,None,tutorial4,001,2023-10-17_19h49.07.799,tutorial4,2023.1.3,None,,,,,,,,,,,,,,
-50,x,0,0,0,0,,,,,20,2,82,0,717.1094557089964,718.0964324589586,718.0964324589586,718.0964324589586,718.0964324589586,718.1062778,719.1016516670352,719.1016516670352,,x,1,0.5311684570042416,None,tutorial4,001,2023-10-17_19h49.07.799,tutorial4,2023.1.3,None,,,,,,,,,,,,,,
-50,x,0,0,0,0,,,,,20,3,83,0,719.6414591249777,720.6298122920562,720.6298122920562,720.6298122920562,720.6298122920562,720.6397383339936,721.6264329589903,721.6264329589903,,x,1,0.4237649979768321,None,tutorial4,001,2023-10-17_19h49.07.799,tutorial4,2023.1.3,None,,,,,,,,,,,,,,
-150,z,0,0,0,0,,,,,21,0,84,3,722.0577658340335,723.0464933749754,723.0464933749754,723.0464933749754,723.0464933749754,723.0562861,724.0442469170084,724.0442469170084,,z,1,0.7460770399775356,None,tutorial4,001,2023-10-17_19h49.07.799,tutorial4,2023.1.3,None,,,,,,,,,,,,,,
150,v,0,0,0,0,,,,,21,1,85,1,724.8019725000486,725.8024941,725.8024941,725.8024941,725.8024941,725.8190556250047,726.7936400000472,726.7936400000472,727.7912128750468,v,1,0.9937920820666477,None,tutorial4,001,2023-10-17_19h49.07.799,tutorial4,2023.1.3,None,,,,,,,,,,,,,,
-50,x,0,0,0,0,,,,,21,2,86,0,727.8018920420436,728.8023812919855,728.8023812919855,728.8023812919855,728.8023812919855,728.8191886669956,729.7852397500537,729.7852397500537,,x,1,0.6044479149859399,None,tutorial4,001,2023-10-17_19h49.07.799,tutorial4,2023.1.3,None,,,,,,,,,,,,,,
-150,z,0,0,0,0,,,,,21,3,87,3,730.4019464589655,731.3954882919788,731.3954882919788,731.3954882919788,731.3954882919788,731.3954882919788,732.3851995420409,732.3851995420409,,z,1,0.9232934979954734,None,tutorial4,001,2023-10-17_19h49.07.799,tutorial4,2023.1.3,None,,,,,,,,,,,,,,
50,c,0,0,0,0,,,,,22,0,88,2,733.3186580840265,734.3127207499929,734.3127207499929,734.3127207499929,734.3127207499929,734.3127207499929,735.3111832500435,735.3111832500435,,c,1,0.9372369989287108,None,tutorial4,001,2023-10-17_19h49.07.799,tutorial4,2023.1.3,None,,,,,,,,,,,,,,
150,v,0,0,0,0,,,,,22,1,89,1,736.2598250419833,737.2470630420139,737.2470630420139,737.2470630420139,737.2470630420139,737.2565218750387,738.2442698749946,738.2442698749946,,v,1,0.6490898319752887,None,tutorial4,001,2023-10-17_19h49.07.799,tutorial4,2023.1.3,None,,,,,,,,,,,,,,
-50,x,0,0,0,0,,,,,22,2,90,0,738.9098079589894,739.8971349169733,739.8971349169733,739.8971349169733,739.8971349169733,739.9060034999857,740.8944450840354,740.8944450840354,,x,1,0.7263532900251448,None,tutorial4,001,2023-10-17_19h49.07.799,tutorial4,2023.1.3,None,,,,,,,,,,,,,,
50,c,0,0,0,0,,,,,22,3,91,2,741.6354927499779,742.6296948340023,742.6296948340023,742.6296948340023,742.6296948340023,742.6296948340023,743.6266133750323,743.6266133750323,,c,1,0.7764294990338385,None,tutorial4,001,2023-10-17_19h49.07.799,tutorial4,2023.1.3,None,,,,,,,,,,,,,,
50,c,0,0,0,0,,,,,23,0,92,2,744.4188559999457,745.4033463749802,745.4033463749802,745.4033463749802,745.4033463749802,745.4131052090088,746.4018681669841,746.4018681669841,747.3924435420195,c,1,1.0247621649177745,None,tutorial4,001,2023-10-17_19h49.07.799,tutorial4,2023.1.3,None,,,,,,,,,,,,,,
-50,x,0,0,0,0,,,,,23,1,93,0,747.4448882089928,748.4357140000211,748.4357140000211,748.4357140000211,748.4357140000211,748.4454415419605,749.4353013340151,749.4353013340151,,x,1,0.8192632899153978,None,tutorial4,001,2023-10-17_19h49.07.799,tutorial4,2023.1.3,None,,,,,,,,,,,,,,
50,c,0,0,0,0,,,,,23,2,94,2,750.2688443340594,751.2529627920594,751.2529627920594,751.2529627920594,751.2529627920594,751.262593,752.2521585420473,752.2521585420473,,c,1,0.49214416497852653,None,tutorial4,001,2023-10-17_19h49.07.799,tutorial4,2023.1.3,None,,,,,,,,,,,,,,
-150,z,0,0,0,0,,,,,23,3,95,3,752.7599524169927,753.746976,753.746976,753.746976,753.746976,753.7568150419975,754.7519788340433,754.7519788340433,755.7418060840573,z,1,1.0518677909858525,None,tutorial4,001,2023-10-17_19h49.07.799,tutorial4,2023.1.3,None,,,,,,,,,,,,,,
-50,x,0,0,0,0,,,,,24,0,96,0,755.8190056249732,756.8194998,756.8194998,756.8194998,756.8194998,756.8361462500179,757.8020276250318,757.8020276250318,,x,1,0.6888614159543067,None,tutorial4,001,2023-10-17_19h49.07.799,tutorial4,2023.1.3,None,,,,,,,,,,,,,,
-50,x,0,0,0,0,,,,,24,1,97,0,758.5022521669744,759.4896978749894,759.4896978749894,759.4896978749894,759.4896978749894,759.5027056250256,760.4855299999472,760.4855299999472,,x,1,0.7131312909768894,None,tutorial4,001,2023-10-17_19h49.07.799,tutorial4,2023.1.3,None,,,,,,,,,,,,,,
-150,z,0,0,0,0,,,,,24,2,98,3,761.2096620419761,762.1976218339987,762.1976218339987,762.1976218339987,762.1976218339987,762.2068135,763.2021399169462,763.2021399169462,,z,1,0.9031058320542797,None,tutorial4,001,2023-10-17_19h49.07.799,tutorial4,2023.1.3,None,,,,,,,,,,,,,,
150,v,0,0,0,0,,,,,24,3,99,1,764.1189579999773,765.1197478750255,765.1197478750255,765.1197478750255,765.1197478750255,765.1362950420007,766.1022488749586,766.1022488749586,,v,1,0.7017667490290478,None,tutorial4,001,2023-10-17_19h49.07.799,tutorial4,2023.1.3,None,,,,,,,,,,,,,,
50,c,0,0,0,0,,,,,25,0,100,2,766.8189755839994,767.8196603750112,767.8196603750112,767.8196603750112,767.8196603750112,767.8361144169467,768.8106548750075,768.8106548750075,,c,1,0.5359299989650026,None,tutorial4,001,2023-10-17_19h49.07.799,tutorial4,2023.1.3,None,,,,,,,,,,,,,,
-150,z,0,0,0,0,,,,,25,1,101,3,769.3598933749599,770.3481466670055,770.3481466670055,770.3481466670055,770.3481466670055,770.3569521249738,771.3431400839472,771.3431400839472,,z,1,0.43104708194732666,None,tutorial4,001,2023-10-17_19h49.07.799,tutorial4,2023.1.3,None,,,,,,,,,,,,,,
-50,x,0,0,0,0,,,,,25,2,102,0,771.7857100840192,772.7864812089829,772.7864812089829,772.7864812089829,772.7864812089829,772.8035470000468,773.7688854170265,773.7688854170265,,x,1,0.4528335399227217,None,tutorial4,001,2023-10-17_19h49.07.799,tutorial4,2023.1.3,None,,,,,,,,,,,,,,
150,v,0,0,0,0,,,,,25,3,103,1,774.2355774169555,775.2205855840584,775.2205855840584,775.2205855840584,775.2205855840584,775.2303130839719,776.2267356249504,776.2267356249504,,v,1,0.6329694980522618,None,tutorial4,001,2023-10-17_19h49.07.799,tutorial4,2023.1.3,None,,,,,,,,,,,,,,
150,v,0,0,0,0,,,,,26,0,104,1,776.8766538340133,777.8638505840208,777.8638505840208,777.8638505840208,777.8638505840208,777.8736870839493,778.8689381249715,778.8689381249715,,v,1,0.45355128997471184,None,tutorial4,001,2023-10-17_19h49.07.799,tutorial4,2023.1.3,None,,,,,,,,,,,,,,
-150,z,0,0,0,0,,,,,26,1,105,3,779.3357455000514,780.3204779169755,780.3204779169755,780.3204779169755,780.3204779169755,780.3302193339914,781.3190676670056,781.3190676670056,,z,1,0.8191237909486517,None,tutorial4,001,2023-10-17_19h49.07.799,tutorial4,2023.1.3,None,,,,,,,,,,,,,,
150,v,0,0,0,0,,,,,26,2,106,1,782.1524463749956,783.1531252920395,783.1531252920395,783.1531252920395,783.1531252920395,783.1697245419491,784.1357566,784.1357566,,v,1,0.44335158192552626,None,tutorial4,001,2023-10-17_19h49.07.799,tutorial4,2023.1.3,None,,,,,,,,,,,,,,
-150,z,0,0,0,0,,,,,26,3,107,3,784.5936205839971,785.5812613340095,785.5812613340095,785.5812613340095,785.5812613340095,785.5901232920587,786.5856379170436,786.5856379170436,,z,1,0.7802313729189336,None,tutorial4,001,2023-10-17_19h49.07.799,tutorial4,2023.1.3,None,,,,,,,,,,,,,,
-150,z,0,0,0,0,,,,,27,0,108,3,787.3767303749919,788.3650223340373,788.3650223340373,788.3650223340373,788.3650223340373,788.3740859590471,789.3693799170433,789.3693799170433,,z,1,0.6446665399707854,None,tutorial4,001,2023-10-17_19h49.07.799,tutorial4,2023.1.3,None,,,,,,,,,,,,,,
